{"resourceType":"Bundle","id":"HDR-Paolo-Marcheschi-Example","meta":{"profile":["http://hl7.eu/fhir/hdr/StructureDefinition/bundle-eu-hdr"]},"identifier":{"type":{"coding":[{"system":"http://terminology.hl7.org/CodeSystem/v2-0203","code":"PRN"}]},"system":"http://example.org/eu/identifier","value":"9ea3fdb2-155c-4da7-9fce-4f24da356e13"},"type":"document","timestamp":"2025-02-02T14:00:00Z","entry":[{"fullUrl":"urn:uuid:130ed4e9-30f3-4a09-b9b1-ad8fd12237cb","resource":{"resourceType":"Composition","id":"130ed4e9-30f3-4a09-b9b1-ad8fd12237cb","meta":{"profile":["http://hl7.eu/fhir/hdr/StructureDefinition/composition-eu-hdr"]},"text":{"status":"generated","div":"<div xmlns=\"http://www.w3.org/1999/xhtml\"><a name=\"Composition_130ed4e9-30f3-4a09-b9b1-ad8fd12237cb\"> </a><p class=\"res-header-id\"><b>Generated Narrative: Composition 130ed4e9-30f3-4a09-b9b1-ad8fd12237cb</b></p><a name=\"130ed4e9-30f3-4a09-b9b1-ad8fd12237cb\"> </a><a name=\"hc130ed4e9-30f3-4a09-b9b1-ad8fd12237cb\"> </a><a name=\"130ed4e9-30f3-4a09-b9b1-ad8fd12237cb-en-US\"> </a><div style=\"display: inline-block; background-color: #d9e0e7; padding: 6px; margin: 4px; border: 1px solid #8da1b4; border-radius: 5px; line-height: 60%\"><p style=\"margin-bottom: 0px\"/><p style=\"margin-bottom: 0px\">Profile: <a href=\"StructureDefinition-composition-eu-hdr.html\">Composition (HDR)</a></p></div><p><b>status</b>: Final</p><p><b>type</b>: <span title=\"Codes:{http://loinc.org 34105-7}\">Hospital Discharge summary</span></p><p><b>encounter</b>: <a href=\"Bundle-HDR-Paolo-Marcheschi-Example.html#urn-uuid-e4d7ab9d-2b9c-42f8-95ef-08ff5e260a8e\">Bundle: identifier = Provider number; type = document; timestamp = 2025-02-02 14:00:00+0000</a></p><p><b>date</b>: 2025-02-02 13:30:00+0000</p><p><b>author</b>: <a href=\"Bundle-HDR-Paolo-Marcheschi-Example.html#urn-uuid-b61b7a93-2965-427a-96b9-972ac7d89997\">Bundle: identifier = Provider number; type = document; timestamp = 2025-02-02 14:00:00+0000</a></p><p><b>title</b>: Lettera di dimissione</p><h3>Attesters</h3><table class=\"grid\"><tr><td style=\"display: none\">-</td><td><b>Mode</b></td><td><b>Time</b></td><td><b>Party</b></td></tr><tr><td style=\"display: none\">*</td><td>Legal</td><td>2025-02-02 00:00:00+0100</td><td><a href=\"Bundle-HDR-Paolo-Marcheschi-Example.html#urn-uuid-b61b7a93-2965-427a-96b9-972ac7d89997\">Bundle: identifier = Provider number; type = document; timestamp = 2025-02-02 14:00:00+0000</a></td></tr></table><p><b>custodian</b>: <a href=\"Bundle-HDR-Paolo-Marcheschi-Example.html#urn-uuid-57b3eb50-9187-4b5d-acd1-9e793c734bc0\">Bundle: identifier = Provider number; type = document; timestamp = 2025-02-02 14:00:00+0000</a></p></div>"},"status":"final","type":{"coding":[{"system":"http://loinc.org","code":"34105-7","display":"Hospital Discharge summary"}]},"subject":{"reference":"urn:uuid:445a0ff8-556d-4be2-bdde-6de668edf019"},"encounter":{"reference":"urn:uuid:e4d7ab9d-2b9c-42f8-95ef-08ff5e260a8e"},"date":"2025-02-02T13:30:00Z","author":[{"reference":"urn:uuid:b61b7a93-2965-427a-96b9-972ac7d89997"}],"title":"Lettera di dimissione","attester":[{"mode":"legal","time":"2025-02-02T00:00:00+01:00","party":{"reference":"urn:uuid:b61b7a93-2965-427a-96b9-972ac7d89997"}}],"custodian":{"reference":"urn:uuid:57b3eb50-9187-4b5d-acd1-9e793c734bc0"},"section":[{"title":"Admission Narrative Diagnosis","code":{"coding":[{"system":"http://loinc.org","code":"67851-6","display":"Admission evaluation note"}]},"text":{"status":"additional","div":"<div xmlns=\"http://www.w3.org/1999/xhtml\">Consolidamento Polmonare</div>"}},{"title":"Terapia Farmacologica All'Ingresso","code":{"coding":[{"system":"http://loinc.org","code":"8677-7","display":"History of Medication use"}]},"text":{"status":"additional","div":"<div xmlns=\"http://www.w3.org/1999/xhtml\">Flecainide (Flecainide auro), cpr. divisibili, 100 mg (ore 8), 100 mg (ore 20); Bisoprololo (Congescor), cpr. riv. divisibili, 3,75 mg (ore 8); Edoxaban (Lixiana), cp.riv., 60 mg (ore 8); Rosuvastatina (Rosuvastatina eg), cp.riv., 10 mg (ore 22).</div>"}},{"title":"Storia di malattia passata","code":{"coding":[{"system":"http://loinc.org","code":"11348-0","display":"History of Past illness Narrative"}]},"text":{"status":"additional","div":"<div xmlns=\"http://www.w3.org/1999/xhtml\">In data 01.08 sottoposto a visita urologica per nicturia frequente, riscontro di segni di prostatite per cui ha effettuato terapia con cefixima 400 mg/die per 10 giorni con relativo miglioramento dei sintomi (eseguite urinocoltura, tampone uretrale e spermiogramma ad esito negativo).<p/>Dal 10.08 comparsa di odontalgia a livello dell'arcata superiore destra, con Rx ortopanoramica negativa, consigliata terapia con amoxicillina/clavulanato 875/125 mg bid per 6 giorni.<p/>Dal 13.08 riferita faringodinia e febbricola ad andamento intermittente con astenia ingravescente, scarsa tosse non produttiva e toracoalgie aspecifiche in sede parasternale bilateralmente a carattere trafittivo. Agli esami ematici del 20.08 VES 52 mm/ora, PCR 2.69 mg/dL, NT-ProBNP 915 pg/mL, emocromo con formula conservata, iposideremia. All'elettroforesi delle proteine plasmatiche incremento alfa-1 ed alfa-2 e presenza di sospetta componente monoclonale in zona gamma.<p/>In data 26.08.2024 eseguita Rx torace 2P con rilievo di sfumato addensamento parenchimale di aspetto flogistico in regione perilare destra e accentuazione dell'interstizio bilateralmente. Intrapresa terapia antibiotica empirica ad ampio spettro con ceftriaxone 2 gr da ieri.<p/>Si ricovera in data odierna per le cure e gli accertamenti del caso.</div>"}},{"title":"Anamnesi","code":{"coding":[{"system":"http://loinc.org","code":"35090-0","display":"Patient history"}]},"text":{"status":"additional","div":"<div xmlns=\"http://www.w3.org/1999/xhtml\">Non fumatore. Nel 2003 riscontro di Extrasistolia Ventricolare asintomatica e disfunzione sistolica del ventricolo sinistro (FE 35%), con albero coronarico indenne. Nel 2006 impianto di ICD. Alla RM FE 51% con circoscritta fibrosi intra-miocardica. Successivi episodi di fibrillazione atriale parossistica. Nel 2013: FE 28%, EDD 68 mm, IM lieve-moderata. Ai controlli dell'ICD nel 2014 e 2015: TVNS asintomatiche. Nel gennaio 2015 riscontro di trombosi atriale destra adesa al catetere del defibrillatore, dimesso con TAO. Nel giugno 2015: non pià segni di trombosi atriale. Nell'aprile 2016 introdotta mexiletina 200 mg x 2, apixaban 5 mg x 2 e sacubitril/valsartan. Nel 2017 endoplastite, trattata con estrazione reimpianto di EC da defibrillazione e sostituzione di ICD bicamerale. Nel 2018 plurime scariche dell'ICD su TV rapida dopo sforzo fisico. All'ecocardiogramma FE 23-25%. Valutato presso il Centro Trapianti dell'Ospedale di Siena. Iniziato amiodarone. Nel 2020 cateterismo destro (pressioni polmonari nei limiti). In seguito, stabilità clinica: mexiletina 200 mg x 3/die e amiodarone a 1 cpr (lunedà-venerdà). Ad aprile 2021 tireotossicosi di tipo 2 da amiodarone. Nel 2022 test genetico positivo per mutazione probabilmente patogenetica del gene DES (c.833 G&gt;A). Ultimo controllo presso Centro Trapianti di Siena a ottobre 2023 (ndn). Dal 22/11/2023 comparsa di febbre associata a brivido e astenia con accesso al PS a Grosseto in data 24/11, positivo per SARS-CoV-2, PCR 1,63, crea 1,27 mg/dl, RX torace negativo per lesioni a focolaio. Iniziato remdesevir. In data 25/11 shock dell'ICD in zona TV. Dimesso il 26/11. In data 01/12 /23 per nuovo episodio di tachicardia ventricolare trattata con shock del defibrillatore ricovero presso la Cardiologia e Medicina Cardiovascolare di questo Istituto. All'ingresso in reparto paziente ancora positivo al COVID (negativizzato il 7/12/23). In data 2/12 altre due TV sostenute interrotte da ATP. Sospesa mexiletina ed introdotta lidocaina per via infusionale. Ecocardiogramma con disfunzione severa e reperti invariati rispetto al precedente di maggio 2023. Positività al tampone rettale per KPC. Sospesa infusione di lidocaina in data 7 dicembre reintroducendo mexiletina con altri due shock il 9/12. Reintrodotta lidocaina ev. Massimizzata terapia anti-infiammatoria, gastroprotettiva e ansiolitica. In data 11/12 positiva al tampone per KPC. Consulenza infettivologica che in previsione di eventuale trapianto cardiaco consigliava tampone nasale (negativo). Sospesa lidocaina ev il 13/12. La sera del 14/12 TV polimorfa con falliti tentativi di ATP e nuovo shock efficace. Reintrodotta lidocaina e midazolam ev. In previsione del trasferimento presso centro trapianti, due episodi di TVS con 2 shock dopo multipli ATP inefficaci. Sottoposto la sera del 15/12 a procedura di blocco percutaneo del ganglio stellato sotto guida ecografica. Non pià aritmie sostenute dalle 17 del 15 dicembre. Trasferito presso UO Cardiochirurgia AOU Siena, vigile ed orientato, asintomatico ed emodinamicamente stabile, dove in data 21.04.2024 veniva sottoposto a trapianto cardiaco ortotopico. Nel decorso post-operatorio segnalato delirium ipercinetico, tamponamento cardiaco post-HTx (drenato il 01.05), versamento pleurico bilaterale in terapia medica, trombosi giugulare parziale bilaterale, FA parossistica. Si segnalano elettrocateteri abbandonati. In terapia antirigetto con tacrolimus, everolimus e prednisone (micofenolato sospeso per rialzo copie CMV), ultima BEM il 20 agosto 2024: rigetto cellulare 0-1.</div>"}},{"title":"Esame Obiettivo","code":{"coding":[{"system":"http://loinc.org","code":"29545-1","display":"Physical findings Narrative"}]},"text":{"status":"additional","div":"<div xmlns=\"http://www.w3.org/1999/xhtml\">Azione cardiaca ritmica. Toni di normale intensità. Pause libere. Cicatrice di sternotomia mediana. Polsi arteriosi presenti nelle normali sedi, normosfigmici e simmetrici. Non soffi vascolari. Non turgore giugulare. Rumore respiratorio presente su tutto l'ambito polmonare, crepitii inspiratori fini, non modificabili con la tosse, in regione basale destra. Addome trattabile alla palpazione superficiale e profonda, margine inferiore del fegato non debordante dall'arcata costale. Non edemi declivi. Sensorio integro.<p/>Altezza: 171 cm; Peso: 83 Kg; Frequenza cardiaca: 72 bpm; Frequenza respiratoria: 15 br/min; Saturazione ossigeno: 92 %; Temperatura: 36 àC; Sensorio: Lucido.</div>"}},{"title":"Decorso ospedaliero","code":{"coding":[{"system":"http://loinc.org","code":"8648-8","display":"Hospital course Narrative"}]},"text":{"status":"additional","div":"<div xmlns=\"http://www.w3.org/1999/xhtml\">All'ingresso in reparto il paziente era stabile da un punto di vista emodinamico, apiretico ma sintomatico per dispnea da sforzo e dolore toracico anteriore in particolare in relazione agli atti respiratori e alla tosse. Al controllo ecocardiografico riscontro di normale funzione sistolica biventricolare. Agli esami ematici incremento degli indici di flogosi. Eseguita TC Torace che ha evidenziato un quadro compatibile con patologia flogistica polmonare in atto di verosimile origine virale con possibile sovrainfezione batterica a livello del lobo medio e nelle regioni dorsali dei lobi inferiori. E' stata pertanto confermata la terapia domiciliare associando, come da valutazione infettivologica, terapia antibiotica empirica ad ampio spettro (linezolid, doxicilina e piperacillina/tazobactam), cortisone per via sistemica ed ossigenoterapia. Veniva inoltre programmata broncoscopia con BAL, eseguita il giorno 28.08, con riscontro di positività per Citomegalovirus (CMV) DNA ad alto titolo, e PCR per Pneumocystis Jiroveci con esame diretto negativo. Veniva quindi introdotta terapia mirata con ganciclovir e trimetoprim/cotrimossazolo, monitorando la funzione epatorenale, gli indici di flogosi e l'emocromo. Una valutazione oculista ha escluso segni di retinite. Nei giorni successivi il paziente ha continuato a presentare sporadici rialzi febbrili, pertanto, per escludere ulteriori sedi di infezione, à stata eseguita una PET/TC Total Body risultata positiva solo a carico dei noti addensamenti polmonari. Nel corso della degenza, su indicazione infettivologica, sulla base dell'andamento degli esami ematochimici, sono stati adeguati i dosaggi della terapia antivirale ed antibiotica e su indicazione della Trapiantologia di Siena adeguata la posologia della terapia immunosoppressiva sulla base dei livelli ematici di tacrolimus ed everolimus. Nel corso della degenza il paziente ha presentato un progressivo miglioramento delle condizioni cliniche, dei parametri laboratoristici e degli scambi gassosi che hanno consentito la sospensione dell'ossigenoterapia, da segnalare introduzione in terapia di insulina s.c. per scarso controllo dei valori glicemici. In data 11/09 à stato ripetuto controllo TC Torace con evidenza di parziale regressione delle note lesioni polmonari e comparsa di piccole aree consolidative di verosimile natura flogistica a carico del LISn e della lingula. Alla luce di tali reperti à stato ripetuta broncoscopia con BAL con conferma della positività, seppure a titolo ridotto, del CMV DNA (sempre negativa la ricerca su siero). Per evidenza all'emocromo di progressiva pancitopenia con prevalente neutropenia à stata ridotta la posologia del Bactrim a dosaggio profilattico ed eseguito passaggio da ganciclovir per via orale a valganciclovir associando granulochine con buona risposta midollare. In considerazione della mancata negativizzazione del CMV DNA su BAL, della mielotossicità del ganciclovir (pur in associazione con tacrolimus , everolimus e Bactrim) e dopo discussione collegiale dei colleghi infettivologi e dei referenti trapiantologi di Siena, si à concordata prescrizione di maribavir in sostituzione del valganciclovir (nel sospetto di farmacoresistenza) da assumere a domicilio, appena in possesso del farmaco, fino a negativizzazione del CMV DNA su BAL. Sono stati, inoltre, presi contatti con la Virologia Ospedale San Raffaele di Milano per le modalità di invio del campione del BAL del 16 settembre u.s. per la ricerca della farmacoresistenze del CMV. Da decidere successivamente, anche in base al risultato delle farmacoresistenza, con quale farmaco proseguire la profilassi secondaria per la riattivazione di CMV.<p/>Si dimette con la raccomandazione di assumere a domicilio la terapia come pià avanti riportato e di effettuare controlli dell'emocromo e della creatinina ogni 48 ore secondo andamento. Se neutrofili &lt; 1000 cellule/mm3, contattare i medici trapiantologi per concordare terapia con Granulochine e per le eventuali variazioni della posologia del tacrolimus ed everolimus.<p/>Controllare l'andamento della glicemia per la eventuale sospensione delle terapia con insulina in caso di ulteriore riduzione del cortisonico.<p/>Appena in possesso del maribavir il paziente dovrà assumerlo con le modalità riportate nell'ultima consulenza infettivologica riportata in lettera (20/9/2024).</div>"}},{"title":"Condizioni del paziente e diagnosi alla dimissione","code":{"coding":[{"system":"http://loinc.org","code":"11535-2","display":"Hospital discharge Dx Narrative"}]},"text":{"status":"additional","div":"<div xmlns=\"http://www.w3.org/1999/xhtml\">Insufficienza respiratoria acuta da Polmonite bilaterale da CMV e P.Carinii in paziente immunodepresso per recente trapianto di cuore per cardiomiopatia dilatativa non ischemica. Pregressa endoplastite. Pregressa tireotossicosi da amiodarone.<table class=\"hl7__hdr\"><thead><tr><th>Diagnosi alla dimissione</th><th>ICD-10</th><th>SNOMED</th></tr></thead><tbody><tr><td>Insufficienza respiratoria acuta</td><td>J96.0</td><td>65710008</td></tr></tbody></table></div>"},"entry":[{"reference":"urn:uuid:abddc069-eda4-44c0-bd68-37e65a7bcb74"}]},{"title":"Terapia farmacologica alla dimissione","code":{"coding":[{"system":"http://loinc.org","code":"75311-1","display":"Discharge medications Narrative"}]},"text":{"status":"additional","div":"<div xmlns=\"http://www.w3.org/1999/xhtml\"><ul><li>(Dicoflor 60 20cps), 1 cpr (ore 8)</li><li>(Ensure plus advance ban4x220ml) 1 flac 220 ml (ore 12)</li><li>Acido folico (Folina), 1 cpr da 5 mg (ore 14)</li><li>Amlodipina (Norvasc), 1 cpr da 10 mg (ore 20)</li><li>Eplerenone (Inspra), 1 cpr da 25 mg (ore 16)</li><li>Everolimus (Certican), 1 cpr da 0,75 mg (ore 8) + 1 cpr da 0,75 mg cpr. (ore 20) a gg alterni (i pari )</li><li>Gabapentin (Neurontin), 1 cpr da 100 mg (ore 22)</li><li>Insulina lispro da dna ricombinante (Humalog), fl s.c. 2 U (ore 8), 6 U (ore 12), 2 U (ore 18) secondo DTX.</li><li>Magnesio (Mag 2 ) 1 bustina (ore 14), 1 bustina (ore 20)</li><li>Metoprololo (Metoprololo hex) 100 mg 1/2 cpr (50 mg) (ore 8), 1/2 cpr (50 mg) (ore 20)</li><li>Nistatina (Mycostatin), sosp.os, 10 ml (ore 8), 10 ml (ore 14), 10 ml (ore 20)</li><li>Omega polienoici (esteri etilici di acidi grassi polinsaturi) (Esapent), 1 cpr da 1 g (ore 14)</li><li>Pantoprazolo (Pantorc), 1 cpr da 20 mg (ore 7)</li><li>Prednisone (Deltacortene) 25 mg, 1/2 cpr (ore 8) + deltacortene 5 mg 1 cpr ore 8</li><li>Rosuvastatina (Rosuvastatina my), 1 cpr da 5 mg (ore 22)</li><li>Tacrolimus (Adoport), 1 cpr da 2 mg (ore 8), 1 cpr da 2 mg (ore 20)</li><li>Tadalafil (Tadur), 1 cpr da 6 mg (ore 13) a gioni alterni ( i pari)</li><li>Trazodone (Trittico),10 gtt (ore 22)</li><li>Trimetoprim/sulfametoxazolo (Bactrim), 1 cpr da 160/800 mg (ore 6)</li><li>Ubidecarenone (Decorenone), 1 cpr da 100 mg (ore 14)</li><li>Valganciclovir (Valcyte), 1 cpr da 900 mg (ore 8),1 cpr da 900 mg (ore 20) da sospender quando in possesso del LIVTENCITY ( maribavir)</li></ul></div>"}},{"title":"Allergie e intolleranze","code":{"coding":[{"system":"http://loinc.org","code":"48765-2","display":"Allergies and adverse reactions Document"}]},"text":{"status":"additional","div":"<div xmlns=\"http://www.w3.org/1999/xhtml\">Il paziente presenta numerose allergie: Anisakis, mezzo di contrasto</div>"}}]}},{"fullUrl":"urn:uuid:445a0ff8-556d-4be2-bdde-6de668edf019","resource":{"resourceType":"Patient","id":"445a0ff8-556d-4be2-bdde-6de668edf019","text":{"status":"generated","div":"<div xmlns=\"http://www.w3.org/1999/xhtml\"><a name=\"Patient_445a0ff8-556d-4be2-bdde-6de668edf019\"> </a><p class=\"res-header-id\"><b>Generated Narrative: Patient 445a0ff8-556d-4be2-bdde-6de668edf019</b></p><a name=\"445a0ff8-556d-4be2-bdde-6de668edf019\"> </a><a name=\"hc445a0ff8-556d-4be2-bdde-6de668edf019\"> </a><a name=\"445a0ff8-556d-4be2-bdde-6de668edf019-en-US\"> </a><p style=\"border: 1px #661aff solid; background-color: #e6e6ff; padding: 10px;\">Paolo Marcheschi Male, DoB: 1990-01-01 ( National unique individual identifier)</p><hr/><table class=\"grid\"><tr><td style=\"background-color: #f3f5da\" title=\"Known Marital status of Patient\">Marital Status:</td><td colspan=\"3\"><span title=\"Codes:{http://terminology.hl7.org/CodeSystem/v3-MaritalStatus M}\">Married</span></td></tr><tr><td style=\"background-color: #f3f5da\" title=\"Ways to contact the Patient\">Contact Detail</td><td colspan=\"3\"><ul><li><a href=\"tel:+390503152822\">+39 0503152822</a></li><li>Piazza di Nopaziene 4 Pisa 57126 Italy (home)</li></ul></td></tr><tr><td style=\"background-color: #f3f5da\" title=\"Language spoken\">Language:</td><td colspan=\"3\"><span title=\"Codes:{urn:ietf:bcp:47 it-IT}\">Italian (Region=Italy)</span></td></tr></table></div>"},"identifier":[{"type":{"coding":[{"system":"http://terminology.hl7.org/CodeSystem/v2-0203","code":"NI"}]},"system":"https://hl7europe.org/example-identifier","value":"9977-888840-8"}],"name":[{"text":"Paolo Marcheschi","family":"Marcheschi","given":["Paolo"]}],"telecom":[{"system":"phone","value":"+39 0503152822"}],"gender":"male","birthDate":"1990-01-01","address":[{"use":"home","type":"physical","line":["Piazza di Nopaziene 4"],"city":"Pisa","postalCode":"57126","country":"Italy"}],"maritalStatus":{"coding":[{"system":"http://terminology.hl7.org/CodeSystem/v3-MaritalStatus","code":"M"}]},"communication":[{"language":{"coding":[{"system":"urn:ietf:bcp:47","code":"it-IT"}]}}]}},{"fullUrl":"urn:uuid:e4d7ab9d-2b9c-42f8-95ef-08ff5e260a8e","resource":{"resourceType":"Encounter","id":"e4d7ab9d-2b9c-42f8-95ef-08ff5e260a8e","meta":{"profile":["http://hl7.eu/fhir/hdr/StructureDefinition/encounter-eu-hdr"]},"text":{"status":"generated","div":"<div xmlns=\"http://www.w3.org/1999/xhtml\"><a name=\"Encounter_e4d7ab9d-2b9c-42f8-95ef-08ff5e260a8e\"> </a><p class=\"res-header-id\"><b>Generated Narrative: Encounter e4d7ab9d-2b9c-42f8-95ef-08ff5e260a8e</b></p><a name=\"e4d7ab9d-2b9c-42f8-95ef-08ff5e260a8e\"> </a><a name=\"hce4d7ab9d-2b9c-42f8-95ef-08ff5e260a8e\"> </a><a name=\"e4d7ab9d-2b9c-42f8-95ef-08ff5e260a8e-en-US\"> </a><div style=\"display: inline-block; background-color: #d9e0e7; padding: 6px; margin: 4px; border: 1px solid #8da1b4; border-radius: 5px; line-height: 60%\"><p style=\"margin-bottom: 0px\"/><p style=\"margin-bottom: 0px\">Profile: <a href=\"StructureDefinition-encounter-eu-hdr.html\">Encounter (HDR)</a></p></div><p><b>status</b>: Finished</p><p><b>class</b>: <a href=\"http://terminology.hl7.org/6.3.0/CodeSystem-v3-ActCode.html#v3-ActCode-IMP\">ActCode IMP</a>: inpatient encounter</p><p><b>subject</b>: <a href=\"Bundle-HDR-Paolo-Marcheschi-Example.html#urn-uuid-445a0ff8-556d-4be2-bdde-6de668edf019\">Bundle: identifier = Provider number; type = document; timestamp = 2025-02-02 14:00:00+0000</a></p><p><b>period</b>: 2025-01-21 10:00:00+0000 --&gt; 2025-02-02 09:00:00+0000</p></div>"},"status":"finished","class":{"system":"http://terminology.hl7.org/CodeSystem/v3-ActCode","code":"IMP","display":"inpatient encounter"},"subject":{"reference":"urn:uuid:445a0ff8-556d-4be2-bdde-6de668edf019"},"period":{"start":"2025-01-21T10:00:00Z","end":"2025-02-02T09:00:00Z"}}},{"fullUrl":"urn:uuid:b61b7a93-2965-427a-96b9-972ac7d89997","resource":{"resourceType":"Practitioner","id":"b61b7a93-2965-427a-96b9-972ac7d89997","text":{"status":"generated","div":"<div xmlns=\"http://www.w3.org/1999/xhtml\"><a name=\"Practitioner_b61b7a93-2965-427a-96b9-972ac7d89997\"> </a><p class=\"res-header-id\"><b>Generated Narrative: Practitioner b61b7a93-2965-427a-96b9-972ac7d89997</b></p><a name=\"b61b7a93-2965-427a-96b9-972ac7d89997\"> </a><a name=\"hcb61b7a93-2965-427a-96b9-972ac7d89997\"> </a><a name=\"b61b7a93-2965-427a-96b9-972ac7d89997-en-US\"> </a><p><b>identifier</b>: ?ngen-9?</p><p><b>name</b>: Ftgm Dottore </p><p><b>telecom</b>: <a href=\"mailto:dottore@ftgm.it\">dottore@ftgm.it</a>, <a href=\"mailto:dottore.ftgm@ftgm.it\">dottore.ftgm@ftgm.it</a></p></div>"},"identifier":[{"id":"12345"}],"name":[{"family":"Dottore","given":["Ftgm"]}],"telecom":[{"system":"email","value":"dottore@ftgm.it"},{"system":"email","value":"dottore.ftgm@ftgm.it"}]}},{"fullUrl":"urn:uuid:57b3eb50-9187-4b5d-acd1-9e793c734bc0","resource":{"resourceType":"Organization","id":"57b3eb50-9187-4b5d-acd1-9e793c734bc0","text":{"status":"generated","div":"<div xmlns=\"http://www.w3.org/1999/xhtml\"><a name=\"Organization_57b3eb50-9187-4b5d-acd1-9e793c734bc0\"> </a><p class=\"res-header-id\"><b>Generated Narrative: Organization 57b3eb50-9187-4b5d-acd1-9e793c734bc0</b></p><a name=\"57b3eb50-9187-4b5d-acd1-9e793c734bc0\"> </a><a name=\"hc57b3eb50-9187-4b5d-acd1-9e793c734bc0\"> </a><a name=\"57b3eb50-9187-4b5d-acd1-9e793c734bc0-en-US\"> </a><p><b>name</b>: FONDAZIONE GABRIELE MONASTERIO</p><p><b>address</b>: Via G. Moruzzi 1,  57126 Pisa Pisa 57126 </p></div>"},"name":"FONDAZIONE GABRIELE MONASTERIO","address":[{"line":["Via G. Moruzzi 1,  57126 Pisa"],"city":"Pisa","postalCode":"57126"}]}},{"fullUrl":"urn:uuid:abddc069-eda4-44c0-bd68-37e65a7bcb74","resource":{"resourceType":"Condition","id":"abddc069-eda4-44c0-bd68-37e65a7bcb74","meta":{"profile":["http://hl7.eu/fhir/hdr/StructureDefinition/condition-eu-hdr"]},"text":{"status":"generated","div":"<div xmlns=\"http://www.w3.org/1999/xhtml\"><a name=\"Condition_abddc069-eda4-44c0-bd68-37e65a7bcb74\"> </a><p class=\"res-header-id\"><b>Generated Narrative: Condition abddc069-eda4-44c0-bd68-37e65a7bcb74</b></p><a name=\"abddc069-eda4-44c0-bd68-37e65a7bcb74\"> </a><a name=\"hcabddc069-eda4-44c0-bd68-37e65a7bcb74\"> </a><a name=\"abddc069-eda4-44c0-bd68-37e65a7bcb74-en-US\"> </a><div style=\"display: inline-block; background-color: #d9e0e7; padding: 6px; margin: 4px; border: 1px solid #8da1b4; border-radius: 5px; line-height: 60%\"><p style=\"margin-bottom: 0px\"/><p style=\"margin-bottom: 0px\">Profile: <a href=\"StructureDefinition-condition-eu-hdr.html\">Condition (HDR)</a></p></div><p><b>clinicalStatus</b>: <span title=\"Codes:{http://terminology.hl7.org/CodeSystem/condition-clinical active}\">Active</span></p><p><b>code</b>: <span title=\"Codes:{http://hl7.org/fhir/sid/icd-10 J96.0}, {http://snomed.info/sct 65710008}\">Acute respiratory failure</span></p><p><b>subject</b>: <a href=\"Bundle-HDR-Paolo-Marcheschi-Example.html#urn-uuid-445a0ff8-556d-4be2-bdde-6de668edf019\">Bundle: identifier = Provider number; type = document; timestamp = 2025-02-02 14:00:00+0000</a></p><p><b>onset</b>: 2025-01-10</p></div>"},"clinicalStatus":{"coding":[{"system":"http://terminology.hl7.org/CodeSystem/condition-clinical","code":"active"}]},"code":{"coding":[{"system":"http://hl7.org/fhir/sid/icd-10","code":"J96.0","display":"Acute respiratory failure"},{"system":"http://snomed.info/sct","code":"65710008","display":"Acute respiratory failure"}]},"subject":{"reference":"urn:uuid:445a0ff8-556d-4be2-bdde-6de668edf019"},"onsetDateTime":"2025-01-10"}}]}