{"resourceType":"Bundle","id":"7e4b1c10-1a2b-4c3d-8e5f-000000000001","meta":{"profile":["http://hl7.eu/fhir/laboratory/StructureDefinition/Bundle-eu-lab"]},"identifier":{"system":"urn:oid:1.2.752.129.2.1.4.1","value":"LOAD-MOCKS-GMH-DEMO-9"},"type":"document","timestamp":"2018-01-02T14:30:00+01:00","entry":[{"fullUrl":"urn:uuid:7e4b1c10-1a2b-4c3d-8e5f-000000000002","resource":{"resourceType":"Composition","id":"7e4b1c10-1a2b-4c3d-8e5f-000000000002","meta":{"profile":["http://hl7.eu/fhir/laboratory/StructureDefinition/Composition-eu-lab"]},"text":{"status":"generated","div":"<div xmlns=\"http://www.w3.org/1999/xhtml\"><a name=\"Composition_7e4b1c10-1a2b-4c3d-8e5f-000000000002\"> </a><p class=\"res-header-id\"><b>Generated Narrative: Composition 7e4b1c10-1a2b-4c3d-8e5f-000000000002</b></p><a name=\"7e4b1c10-1a2b-4c3d-8e5f-000000000002\"> </a><a name=\"hc7e4b1c10-1a2b-4c3d-8e5f-000000000002\"> </a><div style=\"display: inline-block; background-color: #d9e0e7; padding: 6px; margin: 4px; border: 1px solid #8da1b4; border-radius: 5px; line-height: 60%\"><p style=\"margin-bottom: 0px\"/><p style=\"margin-bottom: 0px\">Profile: <a href=\"StructureDefinition-Composition-eu-lab.html\">Composition: Laboratory Report</a></p></div><p><b>status</b>: Final</p><p><b>type</b>: <span title=\"Codes:{http://loinc.org 11502-2}\">Laboratory report</span></p><p><b>date</b>: 2018-01-02 14:30:00+0100</p><p><b>author</b>: <a href=\"Practitioner-7e4b1c10-1a2b-4c3d-8e5f-000000000013.html\">Practitioner Johanna Olsson </a></p><p><b>title</b>: Urinodling kvantitativ och resistensbestämning SIR</p></div>"},"status":"final","type":{"coding":[{"system":"http://loinc.org","code":"11502-2","display":"Laboratory report"}]},"subject":{"reference":"Patient/7e4b1c10-1a2b-4c3d-8e5f-000000000017"},"date":"2018-01-02T14:30:00+01:00","author":[{"reference":"Practitioner/7e4b1c10-1a2b-4c3d-8e5f-000000000013"}],"title":"Urinodling kvantitativ och resistensbestämning SIR","section":[{"title":"Urinodling kvantitativ och resistensbestämning SIR","code":{"coding":[{"system":"http://loinc.org","code":"18725-2","display":"Microbiology studies (set)"}]},"entry":[{"reference":"Observation/7e4b1c10-1a2b-4c3d-8e5f-000000000004"}]}]}},{"fullUrl":"urn:uuid:7e4b1c10-1a2b-4c3d-8e5f-000000000003","resource":{"resourceType":"DiagnosticReport","id":"7e4b1c10-1a2b-4c3d-8e5f-000000000003","meta":{"profile":["http://hl7.eu/fhir/laboratory/StructureDefinition/DiagnosticReport-eu-lab"]},"text":{"status":"generated","div":"<div xmlns=\"http://www.w3.org/1999/xhtml\"><a name=\"DiagnosticReport_7e4b1c10-1a2b-4c3d-8e5f-000000000003\"> </a><p class=\"res-header-id\"><b>Generated Narrative: DiagnosticReport 7e4b1c10-1a2b-4c3d-8e5f-000000000003</b></p><a name=\"7e4b1c10-1a2b-4c3d-8e5f-000000000003\"> </a><a name=\"hc7e4b1c10-1a2b-4c3d-8e5f-000000000003\"> </a><div style=\"display: inline-block; background-color: #d9e0e7; padding: 6px; margin: 4px; border: 1px solid #8da1b4; border-radius: 5px; line-height: 60%\"><p style=\"margin-bottom: 0px\"/><p style=\"margin-bottom: 0px\">Profile: <a href=\"StructureDefinition-DiagnosticReport-eu-lab.html\">DiagnosticReport: Laboratory Report</a></p></div><h2><span title=\"Codes:{http://loinc.org 11502-2}\">Laboratory report</span> </h2><table class=\"grid\"><tr><td>Subject</td><td>Anna Andersson  (no stated gender), DoB: 1980-01-01</td></tr></table><p><b>Report Details</b></p></div>"},"extension":[{"url":"http://hl7.org/fhir/5.0/StructureDefinition/extension-DiagnosticReport.composition","valueReference":{"reference":"Composition/7e4b1c10-1a2b-4c3d-8e5f-000000000002"}}],"status":"final","code":{"coding":[{"system":"http://loinc.org","code":"11502-2","display":"Laboratory report"}]},"subject":{"reference":"Patient/7e4b1c10-1a2b-4c3d-8e5f-000000000017"}}},{"fullUrl":"urn:uuid:7e4b1c10-1a2b-4c3d-8e5f-000000000017","resource":{"resourceType":"Patient","id":"7e4b1c10-1a2b-4c3d-8e5f-000000000017","meta":{"profile":["http://hl7.eu/fhir/base/StructureDefinition/patient-eu-core"]},"text":{"status":"generated","div":"<div xmlns=\"http://www.w3.org/1999/xhtml\"><a name=\"Patient_7e4b1c10-1a2b-4c3d-8e5f-000000000017\"> </a><p class=\"res-header-id\"><b>Generated Narrative: Patient 7e4b1c10-1a2b-4c3d-8e5f-000000000017</b></p><a name=\"7e4b1c10-1a2b-4c3d-8e5f-000000000017\"> </a><a name=\"hc7e4b1c10-1a2b-4c3d-8e5f-000000000017\"> </a><div style=\"display: inline-block; background-color: #d9e0e7; padding: 6px; margin: 4px; border: 1px solid #8da1b4; border-radius: 5px; line-height: 60%\"><p style=\"margin-bottom: 0px\"/><p style=\"margin-bottom: 0px\">Profile: <a href=\"https://build.fhir.org/ig/hl7-eu/base/StructureDefinition-patient-eu-core.html\">Patient (EU core)</a></p></div><p style=\"border: 1px #661aff solid; background-color: #e6e6ff; padding: 10px;\">Anna Andersson  (no stated gender), DoB: 1980-01-01</p><hr/></div>"},"name":[{"family":"Andersson","given":["Anna"]}],"birthDate":"1980-01-01"}},{"fullUrl":"urn:uuid:7e4b1c10-1a2b-4c3d-8e5f-000000000004","resource":{"resourceType":"Observation","id":"7e4b1c10-1a2b-4c3d-8e5f-000000000004","meta":{"profile":["http://hl7.eu/fhir/laboratory/StructureDefinition/Observation-resultslab-eu-lab"]},"text":{"status":"generated","div":"<div xmlns=\"http://www.w3.org/1999/xhtml\"><a name=\"Observation_7e4b1c10-1a2b-4c3d-8e5f-000000000004\"> </a><p class=\"res-header-id\"><b>Generated Narrative: Observation 7e4b1c10-1a2b-4c3d-8e5f-000000000004</b></p><a name=\"7e4b1c10-1a2b-4c3d-8e5f-000000000004\"> </a><a name=\"hc7e4b1c10-1a2b-4c3d-8e5f-000000000004\"> </a><div style=\"display: inline-block; background-color: #d9e0e7; padding: 6px; margin: 4px; border: 1px solid #8da1b4; border-radius: 5px; line-height: 60%\"><p style=\"margin-bottom: 0px\"/><p style=\"margin-bottom: 0px\">Profile: <a href=\"StructureDefinition-Observation-resultslab-eu-lab.html\">Observation Results: laboratory</a></p></div><p><b>status</b>: Final</p><p><b>category</b>: <span title=\"Codes:{http://terminology.hl7.org/CodeSystem/observation-category laboratory}\">Laboratory</span></p><p><b>code</b>: <span title=\"Codes:{http://npu-terminology.org NPU06096}\">U(mittstr)—Bakterieodling</span></p><p><b>subject</b>: <a href=\"Patient-7e4b1c10-1a2b-4c3d-8e5f-000000000017.html\">Anna Andersson  (no stated gender), DoB: 1980-01-01</a></p><p><b>effective</b>: 2018-01-02 14:30:00+0100</p><p><b>performer</b>: <a href=\"Organization-7e4b1c10-1a2b-4c3d-8e5f-000000000016.html\">Organization Laboratoriemedicin Stockholm</a></p><p><b>specimen</b>: <a href=\"Specimen-7e4b1c10-1a2b-4c3d-8e5f-000000000011.html\">Specimen: identifier = LOAD-MOCKS#LOAD-MOCKS-GMH-DEMO-9; type = urine, midstream</a></p><p><b>hasMember</b>: </p><ul><li><a href=\"Observation-7e4b1c10-1a2b-4c3d-8e5f-000000000005.html\">Observation U(mittstr)—Bakterieodling</a></li><li><a href=\"Observation-7e4b1c10-1a2b-4c3d-8e5f-00000000000b.html\">Observation U(mittstr)—Bakterieodling</a></li></ul></div>"},"status":"final","category":[{"coding":[{"system":"http://terminology.hl7.org/CodeSystem/observation-category","code":"laboratory","display":"Laboratory"}]}],"code":{"coding":[{"system":"http://npu-terminology.org","code":"NPU06096","display":"U(mittstr)—Bakterieodling"}]},"subject":{"reference":"Patient/7e4b1c10-1a2b-4c3d-8e5f-000000000017"},"effectiveDateTime":"2018-01-02T14:30:00+01:00","performer":[{"reference":"Organization/7e4b1c10-1a2b-4c3d-8e5f-000000000016"}],"specimen":{"reference":"Specimen/7e4b1c10-1a2b-4c3d-8e5f-000000000011"},"hasMember":[{"reference":"Observation/7e4b1c10-1a2b-4c3d-8e5f-000000000005"},{"reference":"Observation/7e4b1c10-1a2b-4c3d-8e5f-00000000000b"}]}},{"fullUrl":"urn:uuid:7e4b1c10-1a2b-4c3d-8e5f-000000000005","resource":{"resourceType":"Observation","id":"7e4b1c10-1a2b-4c3d-8e5f-000000000005","meta":{"profile":["http://hl7.eu/fhir/laboratory/StructureDefinition/Observation-resultslab-eu-lab"]},"text":{"status":"generated","div":"<div xmlns=\"http://www.w3.org/1999/xhtml\"><a name=\"Observation_7e4b1c10-1a2b-4c3d-8e5f-000000000005\"> </a><p class=\"res-header-id\"><b>Generated Narrative: Observation 7e4b1c10-1a2b-4c3d-8e5f-000000000005</b></p><a name=\"7e4b1c10-1a2b-4c3d-8e5f-000000000005\"> </a><a name=\"hc7e4b1c10-1a2b-4c3d-8e5f-000000000005\"> </a><div style=\"display: inline-block; background-color: #d9e0e7; padding: 6px; margin: 4px; border: 1px solid #8da1b4; border-radius: 5px; line-height: 60%\"><p style=\"margin-bottom: 0px\"/><p style=\"margin-bottom: 0px\">Profile: <a href=\"StructureDefinition-Observation-resultslab-eu-lab.html\">Observation Results: laboratory</a></p></div><p><b>status</b>: Final</p><p><b>category</b>: <span title=\"Codes:{http://terminology.hl7.org/CodeSystem/observation-category laboratory}\">Laboratory</span></p><p><b>code</b>: <span title=\"Codes:{http://npu-terminology.org NPU06096}\">U(mittstr)—Bakterieodling</span></p><p><b>subject</b>: <a href=\"Patient-7e4b1c10-1a2b-4c3d-8e5f-000000000017.html\">Anna Andersson  (no stated gender), DoB: 1980-01-01</a></p><p><b>effective</b>: 2018-01-02 14:30:00+0100</p><p><b>performer</b>: <a href=\"Organization-7e4b1c10-1a2b-4c3d-8e5f-000000000016.html\">Organization Laboratoriemedicin Stockholm</a></p><p><b>value</b>: <span title=\"Codes:{http://snomed.info/sct 78065002}\">Enterococcus faecalis</span></p><p><b>note</b>: </p><blockquote><div><p>100 000 CFU/mL</p>\n</div></blockquote><p><b>specimen</b>: <a href=\"Specimen-7e4b1c10-1a2b-4c3d-8e5f-000000000011.html\">Specimen: identifier = LOAD-MOCKS#LOAD-MOCKS-GMH-DEMO-9; type = urine, midstream</a></p></div>"},"status":"final","category":[{"coding":[{"system":"http://terminology.hl7.org/CodeSystem/observation-category","code":"laboratory","display":"Laboratory"}]}],"code":{"coding":[{"system":"http://npu-terminology.org","code":"NPU06096","display":"U(mittstr)—Bakterieodling"}]},"subject":{"reference":"Patient/7e4b1c10-1a2b-4c3d-8e5f-000000000017"},"effectiveDateTime":"2018-01-02T14:30:00+01:00","performer":[{"reference":"Organization/7e4b1c10-1a2b-4c3d-8e5f-000000000016"}],"valueCodeableConcept":{"coding":[{"system":"http://snomed.info/sct","code":"78065002","display":"Enterococcus faecalis"}]},"note":[{"text":"100 000 CFU/mL"}],"specimen":{"reference":"Specimen/7e4b1c10-1a2b-4c3d-8e5f-000000000011"}}},{"fullUrl":"urn:uuid:7e4b1c10-1a2b-4c3d-8e5f-000000000006","resource":{"resourceType":"Observation","id":"7e4b1c10-1a2b-4c3d-8e5f-000000000006","meta":{"profile":["http://hl7.eu/fhir/laboratory/StructureDefinition/Observation-resultslab-eu-lab"]},"text":{"status":"extensions","div":"<div xmlns=\"http://www.w3.org/1999/xhtml\"><a name=\"Observation_7e4b1c10-1a2b-4c3d-8e5f-000000000006\"> </a><p class=\"res-header-id\"><b>Generated Narrative: Observation 7e4b1c10-1a2b-4c3d-8e5f-000000000006</b></p><a name=\"7e4b1c10-1a2b-4c3d-8e5f-000000000006\"> </a><a name=\"hc7e4b1c10-1a2b-4c3d-8e5f-000000000006\"> </a><div style=\"display: inline-block; background-color: #d9e0e7; padding: 6px; margin: 4px; border: 1px solid #8da1b4; border-radius: 5px; line-height: 60%\"><p style=\"margin-bottom: 0px\"/><p style=\"margin-bottom: 0px\">Profile: <a href=\"StructureDefinition-Observation-resultslab-eu-lab.html\">Observation Results: laboratory</a></p></div><blockquote><p><b>Extension Definition for Observation.triggeredBy for Version 5.0</b></p><blockquote><p><b>url</b></p>observation</blockquote><p><b>value</b>: <a href=\"Observation-7e4b1c10-1a2b-4c3d-8e5f-000000000005.html\">Observation U(mittstr)—Bakterieodling</a></p><blockquote><p><b>url</b></p>type</blockquote></blockquote><p><b>status</b>: Final</p><p><b>category</b>: <span title=\"Codes:{http://terminology.hl7.org/CodeSystem/observation-category laboratory}\">Laboratory</span></p><p><b>code</b>: <span title=\"Codes:{http://npu-terminology.org NPU58643}\">U(mittstr)—Bakterie (ant)</span></p><p><b>subject</b>: <a href=\"Patient-7e4b1c10-1a2b-4c3d-8e5f-000000000017.html\">Anna Andersson  (no stated gender), DoB: 1980-01-01</a></p><p><b>effective</b>: 2018-01-02 14:30:00+0100</p><p><b>performer</b>: <a href=\"Organization-7e4b1c10-1a2b-4c3d-8e5f-000000000016.html\">Organization Laboratoriemedicin Stockholm</a></p><p><b>value</b>: 100000 CFU/mL<span style=\"background: LightGoldenRodYellow\"> (Details: UCUM  code[CFU]/mL = '[CFU]/mL')</span></p><p><b>specimen</b>: <a href=\"Specimen-7e4b1c10-1a2b-4c3d-8e5f-000000000011.html\">Specimen: identifier = LOAD-MOCKS#LOAD-MOCKS-GMH-DEMO-9; type = urine, midstream</a></p></div>"},"extension":[{"extension":[{"url":"observation","valueReference":{"reference":"Observation/7e4b1c10-1a2b-4c3d-8e5f-000000000005"}},{"url":"type"}],"url":"http://hl7.org/fhir/5.0/StructureDefinition/extension-Observation.triggeredBy"}],"status":"final","category":[{"coding":[{"system":"http://terminology.hl7.org/CodeSystem/observation-category","code":"laboratory","display":"Laboratory"}]}],"code":{"coding":[{"system":"http://npu-terminology.org","code":"NPU58643","display":"U(mittstr)—Bakterie (ant)"}]},"subject":{"reference":"Patient/7e4b1c10-1a2b-4c3d-8e5f-000000000017"},"effectiveDateTime":"2018-01-02T14:30:00+01:00","performer":[{"reference":"Organization/7e4b1c10-1a2b-4c3d-8e5f-000000000016"}],"valueQuantity":{"value":100000,"unit":"CFU/mL","system":"http://unitsofmeasure.org","code":"[CFU]/mL"},"specimen":{"reference":"Specimen/7e4b1c10-1a2b-4c3d-8e5f-000000000011"}}},{"fullUrl":"urn:uuid:7e4b1c10-1a2b-4c3d-8e5f-000000000007","resource":{"resourceType":"Observation","id":"7e4b1c10-1a2b-4c3d-8e5f-000000000007","meta":{"profile":["http://hl7.eu/fhir/laboratory/StructureDefinition/Observation-resultslab-eu-lab"]},"text":{"status":"extensions","div":"<div xmlns=\"http://www.w3.org/1999/xhtml\"><a name=\"Observation_7e4b1c10-1a2b-4c3d-8e5f-000000000007\"> </a><p class=\"res-header-id\"><b>Generated Narrative: Observation 7e4b1c10-1a2b-4c3d-8e5f-000000000007</b></p><a name=\"7e4b1c10-1a2b-4c3d-8e5f-000000000007\"> </a><a name=\"hc7e4b1c10-1a2b-4c3d-8e5f-000000000007\"> </a><div style=\"display: inline-block; background-color: #d9e0e7; padding: 6px; margin: 4px; border: 1px solid #8da1b4; border-radius: 5px; line-height: 60%\"><p style=\"margin-bottom: 0px\"/><p style=\"margin-bottom: 0px\">Profile: <a href=\"StructureDefinition-Observation-resultslab-eu-lab.html\">Observation Results: laboratory</a></p></div><blockquote><p><b>Extension Definition for Observation.triggeredBy for Version 5.0</b></p><blockquote><p><b>url</b></p>observation</blockquote><p><b>value</b>: <a href=\"Observation-7e4b1c10-1a2b-4c3d-8e5f-000000000005.html\">Observation U(mittstr)—Bakterieodling</a></p><blockquote><p><b>url</b></p>type</blockquote></blockquote><p><b>status</b>: Final</p><p><b>category</b>: <span title=\"Codes:{http://terminology.hl7.org/CodeSystem/observation-category laboratory}\">Laboratory</span></p><p><b>code</b>: <span title=\"Codes:{http://npu-terminology.org NPU06001}\">Amoxicillin</span></p><p><b>subject</b>: <a href=\"Patient-7e4b1c10-1a2b-4c3d-8e5f-000000000017.html\">Anna Andersson  (no stated gender), DoB: 1980-01-01</a></p><p><b>effective</b>: 2018-01-02 14:30:00+0100</p><p><b>performer</b>: <a href=\"Organization-7e4b1c10-1a2b-4c3d-8e5f-000000000016.html\">Organization Laboratoriemedicin Stockholm</a></p><p><b>value</b>: <span title=\"Codes:{http://snomed.info/sct 131196009}\">S</span></p><p><b>interpretation</b>: <span title=\"Codes:{http://terminology.hl7.org/CodeSystem/v3-ObservationInterpretation S}\">Susceptible</span></p><p><b>specimen</b>: <a href=\"Specimen-7e4b1c10-1a2b-4c3d-8e5f-000000000011.html\">Specimen: identifier = LOAD-MOCKS#LOAD-MOCKS-GMH-DEMO-9; type = urine, midstream</a></p></div>"},"extension":[{"extension":[{"url":"observation","valueReference":{"reference":"Observation/7e4b1c10-1a2b-4c3d-8e5f-000000000005"}},{"url":"type"}],"url":"http://hl7.org/fhir/5.0/StructureDefinition/extension-Observation.triggeredBy"}],"status":"final","category":[{"coding":[{"system":"http://terminology.hl7.org/CodeSystem/observation-category","code":"laboratory","display":"Laboratory"}]}],"code":{"coding":[{"system":"http://npu-terminology.org","code":"NPU06001","display":"Amoxicillin"}]},"subject":{"reference":"Patient/7e4b1c10-1a2b-4c3d-8e5f-000000000017"},"effectiveDateTime":"2018-01-02T14:30:00+01:00","performer":[{"reference":"Organization/7e4b1c10-1a2b-4c3d-8e5f-000000000016"}],"valueCodeableConcept":{"coding":[{"system":"http://snomed.info/sct","code":"131196009","display":"S"}]},"interpretation":[{"coding":[{"system":"http://terminology.hl7.org/CodeSystem/v3-ObservationInterpretation","code":"S","display":"Susceptible"}]}],"specimen":{"reference":"Specimen/7e4b1c10-1a2b-4c3d-8e5f-000000000011"}}},{"fullUrl":"urn:uuid:7e4b1c10-1a2b-4c3d-8e5f-000000000008","resource":{"resourceType":"Observation","id":"7e4b1c10-1a2b-4c3d-8e5f-000000000008","meta":{"profile":["http://hl7.eu/fhir/laboratory/StructureDefinition/Observation-resultslab-eu-lab"]},"text":{"status":"extensions","div":"<div xmlns=\"http://www.w3.org/1999/xhtml\"><a name=\"Observation_7e4b1c10-1a2b-4c3d-8e5f-000000000008\"> </a><p class=\"res-header-id\"><b>Generated Narrative: Observation 7e4b1c10-1a2b-4c3d-8e5f-000000000008</b></p><a name=\"7e4b1c10-1a2b-4c3d-8e5f-000000000008\"> </a><a name=\"hc7e4b1c10-1a2b-4c3d-8e5f-000000000008\"> </a><div style=\"display: inline-block; background-color: #d9e0e7; padding: 6px; margin: 4px; border: 1px solid #8da1b4; border-radius: 5px; line-height: 60%\"><p style=\"margin-bottom: 0px\"/><p style=\"margin-bottom: 0px\">Profile: <a href=\"StructureDefinition-Observation-resultslab-eu-lab.html\">Observation Results: laboratory</a></p></div><blockquote><p><b>Extension Definition for Observation.triggeredBy for Version 5.0</b></p><blockquote><p><b>url</b></p>observation</blockquote><p><b>value</b>: <a href=\"Observation-7e4b1c10-1a2b-4c3d-8e5f-000000000005.html\">Observation U(mittstr)—Bakterieodling</a></p><blockquote><p><b>url</b></p>type</blockquote></blockquote><p><b>status</b>: Final</p><p><b>category</b>: <span title=\"Codes:{http://terminology.hl7.org/CodeSystem/observation-category laboratory}\">Laboratory</span></p><p><b>code</b>: <span title=\"Codes:{http://npu-terminology.org NPU07424}\">Piperacillin+Tazobaktam</span></p><p><b>subject</b>: <a href=\"Patient-7e4b1c10-1a2b-4c3d-8e5f-000000000017.html\">Anna Andersson  (no stated gender), DoB: 1980-01-01</a></p><p><b>effective</b>: 2018-01-02 14:30:00+0100</p><p><b>performer</b>: <a href=\"Organization-7e4b1c10-1a2b-4c3d-8e5f-000000000016.html\">Organization Laboratoriemedicin Stockholm</a></p><p><b>value</b>: <span title=\"Codes:{http://snomed.info/sct 131196009}\">S</span></p><p><b>interpretation</b>: <span title=\"Codes:{http://terminology.hl7.org/CodeSystem/v3-ObservationInterpretation S}\">Susceptible</span></p><p><b>specimen</b>: <a href=\"Specimen-7e4b1c10-1a2b-4c3d-8e5f-000000000011.html\">Specimen: identifier = LOAD-MOCKS#LOAD-MOCKS-GMH-DEMO-9; type = urine, midstream</a></p></div>"},"extension":[{"extension":[{"url":"observation","valueReference":{"reference":"Observation/7e4b1c10-1a2b-4c3d-8e5f-000000000005"}},{"url":"type"}],"url":"http://hl7.org/fhir/5.0/StructureDefinition/extension-Observation.triggeredBy"}],"status":"final","category":[{"coding":[{"system":"http://terminology.hl7.org/CodeSystem/observation-category","code":"laboratory","display":"Laboratory"}]}],"code":{"coding":[{"system":"http://npu-terminology.org","code":"NPU07424","display":"Piperacillin+Tazobaktam"}]},"subject":{"reference":"Patient/7e4b1c10-1a2b-4c3d-8e5f-000000000017"},"effectiveDateTime":"2018-01-02T14:30:00+01:00","performer":[{"reference":"Organization/7e4b1c10-1a2b-4c3d-8e5f-000000000016"}],"valueCodeableConcept":{"coding":[{"system":"http://snomed.info/sct","code":"131196009","display":"S"}]},"interpretation":[{"coding":[{"system":"http://terminology.hl7.org/CodeSystem/v3-ObservationInterpretation","code":"S","display":"Susceptible"}]}],"specimen":{"reference":"Specimen/7e4b1c10-1a2b-4c3d-8e5f-000000000011"}}},{"fullUrl":"urn:uuid:7e4b1c10-1a2b-4c3d-8e5f-000000000009","resource":{"resourceType":"Observation","id":"7e4b1c10-1a2b-4c3d-8e5f-000000000009","meta":{"profile":["http://hl7.eu/fhir/laboratory/StructureDefinition/Observation-resultslab-eu-lab"]},"text":{"status":"extensions","div":"<div xmlns=\"http://www.w3.org/1999/xhtml\"><a name=\"Observation_7e4b1c10-1a2b-4c3d-8e5f-000000000009\"> </a><p class=\"res-header-id\"><b>Generated Narrative: Observation 7e4b1c10-1a2b-4c3d-8e5f-000000000009</b></p><a name=\"7e4b1c10-1a2b-4c3d-8e5f-000000000009\"> </a><a name=\"hc7e4b1c10-1a2b-4c3d-8e5f-000000000009\"> </a><div style=\"display: inline-block; background-color: #d9e0e7; padding: 6px; margin: 4px; border: 1px solid #8da1b4; border-radius: 5px; line-height: 60%\"><p style=\"margin-bottom: 0px\"/><p style=\"margin-bottom: 0px\">Profile: <a href=\"StructureDefinition-Observation-resultslab-eu-lab.html\">Observation Results: laboratory</a></p></div><blockquote><p><b>Extension Definition for Observation.triggeredBy for Version 5.0</b></p><blockquote><p><b>url</b></p>observation</blockquote><p><b>value</b>: <a href=\"Observation-7e4b1c10-1a2b-4c3d-8e5f-000000000005.html\">Observation U(mittstr)—Bakterieodling</a></p><blockquote><p><b>url</b></p>type</blockquote></blockquote><p><b>status</b>: Final</p><p><b>category</b>: <span title=\"Codes:{http://terminology.hl7.org/CodeSystem/observation-category laboratory}\">Laboratory</span></p><p><b>code</b>: <span title=\"Codes:{http://npu-terminology.org NPU06049}\">Ciprofloxacin</span></p><p><b>subject</b>: <a href=\"Patient-7e4b1c10-1a2b-4c3d-8e5f-000000000017.html\">Anna Andersson  (no stated gender), DoB: 1980-01-01</a></p><p><b>effective</b>: 2018-01-02 14:30:00+0100</p><p><b>performer</b>: <a href=\"Organization-7e4b1c10-1a2b-4c3d-8e5f-000000000016.html\">Organization Laboratoriemedicin Stockholm</a></p><p><b>value</b>: <span title=\"Codes:{http://snomed.info/sct 30714006}\">R</span></p><p><b>interpretation</b>: <span title=\"Codes:{http://terminology.hl7.org/CodeSystem/v3-ObservationInterpretation R}\">Resistant</span></p><p><b>specimen</b>: <a href=\"Specimen-7e4b1c10-1a2b-4c3d-8e5f-000000000011.html\">Specimen: identifier = LOAD-MOCKS#LOAD-MOCKS-GMH-DEMO-9; type = urine, midstream</a></p></div>"},"extension":[{"extension":[{"url":"observation","valueReference":{"reference":"Observation/7e4b1c10-1a2b-4c3d-8e5f-000000000005"}},{"url":"type"}],"url":"http://hl7.org/fhir/5.0/StructureDefinition/extension-Observation.triggeredBy"}],"status":"final","category":[{"coding":[{"system":"http://terminology.hl7.org/CodeSystem/observation-category","code":"laboratory","display":"Laboratory"}]}],"code":{"coding":[{"system":"http://npu-terminology.org","code":"NPU06049","display":"Ciprofloxacin"}]},"subject":{"reference":"Patient/7e4b1c10-1a2b-4c3d-8e5f-000000000017"},"effectiveDateTime":"2018-01-02T14:30:00+01:00","performer":[{"reference":"Organization/7e4b1c10-1a2b-4c3d-8e5f-000000000016"}],"valueCodeableConcept":{"coding":[{"system":"http://snomed.info/sct","code":"30714006","display":"R"}]},"interpretation":[{"coding":[{"system":"http://terminology.hl7.org/CodeSystem/v3-ObservationInterpretation","code":"R","display":"Resistant"}]}],"specimen":{"reference":"Specimen/7e4b1c10-1a2b-4c3d-8e5f-000000000011"}}},{"fullUrl":"urn:uuid:7e4b1c10-1a2b-4c3d-8e5f-00000000000a","resource":{"resourceType":"Observation","id":"7e4b1c10-1a2b-4c3d-8e5f-00000000000a","meta":{"profile":["http://hl7.eu/fhir/laboratory/StructureDefinition/Observation-resultslab-eu-lab"]},"text":{"status":"extensions","div":"<div xmlns=\"http://www.w3.org/1999/xhtml\"><a name=\"Observation_7e4b1c10-1a2b-4c3d-8e5f-00000000000a\"> </a><p class=\"res-header-id\"><b>Generated Narrative: Observation 7e4b1c10-1a2b-4c3d-8e5f-00000000000a</b></p><a name=\"7e4b1c10-1a2b-4c3d-8e5f-00000000000a\"> </a><a name=\"hc7e4b1c10-1a2b-4c3d-8e5f-00000000000a\"> </a><div style=\"display: inline-block; background-color: #d9e0e7; padding: 6px; margin: 4px; border: 1px solid #8da1b4; border-radius: 5px; line-height: 60%\"><p style=\"margin-bottom: 0px\"/><p style=\"margin-bottom: 0px\">Profile: <a href=\"StructureDefinition-Observation-resultslab-eu-lab.html\">Observation Results: laboratory</a></p></div><blockquote><p><b>Extension Definition for Observation.triggeredBy for Version 5.0</b></p><blockquote><p><b>url</b></p>observation</blockquote><p><b>value</b>: <a href=\"Observation-7e4b1c10-1a2b-4c3d-8e5f-000000000005.html\">Observation U(mittstr)—Bakterieodling</a></p><blockquote><p><b>url</b></p>type</blockquote></blockquote><p><b>status</b>: Final</p><p><b>category</b>: <span title=\"Codes:{http://terminology.hl7.org/CodeSystem/observation-category laboratory}\">Laboratory</span></p><p><b>code</b>: <span title=\"Codes:{http://npu-terminology.org NPU06047}\">Trimetoprim</span></p><p><b>subject</b>: <a href=\"Patient-7e4b1c10-1a2b-4c3d-8e5f-000000000017.html\">Anna Andersson  (no stated gender), DoB: 1980-01-01</a></p><p><b>effective</b>: 2018-01-02 14:30:00+0100</p><p><b>performer</b>: <a href=\"Organization-7e4b1c10-1a2b-4c3d-8e5f-000000000016.html\">Organization Laboratoriemedicin Stockholm</a></p><p><b>value</b>: <span title=\"Codes:{http://snomed.info/sct 264841006}\">I</span></p><p><b>interpretation</b>: <span title=\"Codes:{http://terminology.hl7.org/CodeSystem/v3-ObservationInterpretation I}\">Intermediate</span></p><p><b>specimen</b>: <a href=\"Specimen-7e4b1c10-1a2b-4c3d-8e5f-000000000011.html\">Specimen: identifier = LOAD-MOCKS#LOAD-MOCKS-GMH-DEMO-9; type = urine, midstream</a></p></div>"},"extension":[{"extension":[{"url":"observation","valueReference":{"reference":"Observation/7e4b1c10-1a2b-4c3d-8e5f-000000000005"}},{"url":"type"}],"url":"http://hl7.org/fhir/5.0/StructureDefinition/extension-Observation.triggeredBy"}],"status":"final","category":[{"coding":[{"system":"http://terminology.hl7.org/CodeSystem/observation-category","code":"laboratory","display":"Laboratory"}]}],"code":{"coding":[{"system":"http://npu-terminology.org","code":"NPU06047","display":"Trimetoprim"}]},"subject":{"reference":"Patient/7e4b1c10-1a2b-4c3d-8e5f-000000000017"},"effectiveDateTime":"2018-01-02T14:30:00+01:00","performer":[{"reference":"Organization/7e4b1c10-1a2b-4c3d-8e5f-000000000016"}],"valueCodeableConcept":{"coding":[{"system":"http://snomed.info/sct","code":"264841006","display":"I"}]},"interpretation":[{"coding":[{"system":"http://terminology.hl7.org/CodeSystem/v3-ObservationInterpretation","code":"I","display":"Intermediate"}]}],"specimen":{"reference":"Specimen/7e4b1c10-1a2b-4c3d-8e5f-000000000011"}}},{"fullUrl":"urn:uuid:7e4b1c10-1a2b-4c3d-8e5f-00000000000b","resource":{"resourceType":"Observation","id":"7e4b1c10-1a2b-4c3d-8e5f-00000000000b","meta":{"profile":["http://hl7.eu/fhir/laboratory/StructureDefinition/Observation-resultslab-eu-lab"]},"text":{"status":"generated","div":"<div xmlns=\"http://www.w3.org/1999/xhtml\"><a name=\"Observation_7e4b1c10-1a2b-4c3d-8e5f-00000000000b\"> </a><p class=\"res-header-id\"><b>Generated Narrative: Observation 7e4b1c10-1a2b-4c3d-8e5f-00000000000b</b></p><a name=\"7e4b1c10-1a2b-4c3d-8e5f-00000000000b\"> </a><a name=\"hc7e4b1c10-1a2b-4c3d-8e5f-00000000000b\"> </a><div style=\"display: inline-block; background-color: #d9e0e7; padding: 6px; margin: 4px; border: 1px solid #8da1b4; border-radius: 5px; line-height: 60%\"><p style=\"margin-bottom: 0px\"/><p style=\"margin-bottom: 0px\">Profile: <a href=\"StructureDefinition-Observation-resultslab-eu-lab.html\">Observation Results: laboratory</a></p></div><p><b>status</b>: Final</p><p><b>category</b>: <span title=\"Codes:{http://terminology.hl7.org/CodeSystem/observation-category laboratory}\">Laboratory</span></p><p><b>code</b>: <span title=\"Codes:{http://npu-terminology.org NPU06096}\">U(mittstr)—Bakterieodling</span></p><p><b>subject</b>: <a href=\"Patient-7e4b1c10-1a2b-4c3d-8e5f-000000000017.html\">Anna Andersson  (no stated gender), DoB: 1980-01-01</a></p><p><b>effective</b>: 2018-01-02 14:30:00+0100</p><p><b>performer</b>: <a href=\"Organization-7e4b1c10-1a2b-4c3d-8e5f-000000000016.html\">Organization Laboratoriemedicin Stockholm</a></p><p><b>value</b>: <span title=\"Codes:{http://snomed.info/sct 112283007}\">Escherichia coli</span></p><p><b>note</b>: </p><blockquote><div><p>100 000 CFU/mL</p>\n</div></blockquote><p><b>specimen</b>: <a href=\"Specimen-7e4b1c10-1a2b-4c3d-8e5f-000000000011.html\">Specimen: identifier = LOAD-MOCKS#LOAD-MOCKS-GMH-DEMO-9; type = urine, midstream</a></p></div>"},"status":"final","category":[{"coding":[{"system":"http://terminology.hl7.org/CodeSystem/observation-category","code":"laboratory","display":"Laboratory"}]}],"code":{"coding":[{"system":"http://npu-terminology.org","code":"NPU06096","display":"U(mittstr)—Bakterieodling"}]},"subject":{"reference":"Patient/7e4b1c10-1a2b-4c3d-8e5f-000000000017"},"effectiveDateTime":"2018-01-02T14:30:00+01:00","performer":[{"reference":"Organization/7e4b1c10-1a2b-4c3d-8e5f-000000000016"}],"valueCodeableConcept":{"coding":[{"system":"http://snomed.info/sct","code":"112283007","display":"Escherichia coli"}]},"note":[{"text":"100 000 CFU/mL"}],"specimen":{"reference":"Specimen/7e4b1c10-1a2b-4c3d-8e5f-000000000011"}}},{"fullUrl":"urn:uuid:7e4b1c10-1a2b-4c3d-8e5f-00000000000c","resource":{"resourceType":"Observation","id":"7e4b1c10-1a2b-4c3d-8e5f-00000000000c","meta":{"profile":["http://hl7.eu/fhir/laboratory/StructureDefinition/Observation-resultslab-eu-lab"]},"text":{"status":"extensions","div":"<div xmlns=\"http://www.w3.org/1999/xhtml\"><a name=\"Observation_7e4b1c10-1a2b-4c3d-8e5f-00000000000c\"> </a><p class=\"res-header-id\"><b>Generated Narrative: Observation 7e4b1c10-1a2b-4c3d-8e5f-00000000000c</b></p><a name=\"7e4b1c10-1a2b-4c3d-8e5f-00000000000c\"> </a><a name=\"hc7e4b1c10-1a2b-4c3d-8e5f-00000000000c\"> </a><div style=\"display: inline-block; background-color: #d9e0e7; padding: 6px; margin: 4px; border: 1px solid #8da1b4; border-radius: 5px; line-height: 60%\"><p style=\"margin-bottom: 0px\"/><p style=\"margin-bottom: 0px\">Profile: <a href=\"StructureDefinition-Observation-resultslab-eu-lab.html\">Observation Results: laboratory</a></p></div><blockquote><p><b>Extension Definition for Observation.triggeredBy for Version 5.0</b></p><blockquote><p><b>url</b></p>observation</blockquote><p><b>value</b>: <a href=\"Observation-7e4b1c10-1a2b-4c3d-8e5f-00000000000b.html\">Observation U(mittstr)—Bakterieodling</a></p><blockquote><p><b>url</b></p>type</blockquote></blockquote><p><b>status</b>: Final</p><p><b>category</b>: <span title=\"Codes:{http://terminology.hl7.org/CodeSystem/observation-category laboratory}\">Laboratory</span></p><p><b>code</b>: <span title=\"Codes:{http://npu-terminology.org NPU58643}\">U(mittstr)—Bakterie (ant)</span></p><p><b>subject</b>: <a href=\"Patient-7e4b1c10-1a2b-4c3d-8e5f-000000000017.html\">Anna Andersson  (no stated gender), DoB: 1980-01-01</a></p><p><b>effective</b>: 2018-01-02 14:30:00+0100</p><p><b>performer</b>: <a href=\"Organization-7e4b1c10-1a2b-4c3d-8e5f-000000000016.html\">Organization Laboratoriemedicin Stockholm</a></p><p><b>value</b>: 100000 CFU/mL<span style=\"background: LightGoldenRodYellow\"> (Details: UCUM  code[CFU]/mL = '[CFU]/mL')</span></p><p><b>specimen</b>: <a href=\"Specimen-7e4b1c10-1a2b-4c3d-8e5f-000000000011.html\">Specimen: identifier = LOAD-MOCKS#LOAD-MOCKS-GMH-DEMO-9; type = urine, midstream</a></p></div>"},"extension":[{"extension":[{"url":"observation","valueReference":{"reference":"Observation/7e4b1c10-1a2b-4c3d-8e5f-00000000000b"}},{"url":"type"}],"url":"http://hl7.org/fhir/5.0/StructureDefinition/extension-Observation.triggeredBy"}],"status":"final","category":[{"coding":[{"system":"http://terminology.hl7.org/CodeSystem/observation-category","code":"laboratory","display":"Laboratory"}]}],"code":{"coding":[{"system":"http://npu-terminology.org","code":"NPU58643","display":"U(mittstr)—Bakterie (ant)"}]},"subject":{"reference":"Patient/7e4b1c10-1a2b-4c3d-8e5f-000000000017"},"effectiveDateTime":"2018-01-02T14:30:00+01:00","performer":[{"reference":"Organization/7e4b1c10-1a2b-4c3d-8e5f-000000000016"}],"valueQuantity":{"value":100000,"unit":"CFU/mL","system":"http://unitsofmeasure.org","code":"[CFU]/mL"},"specimen":{"reference":"Specimen/7e4b1c10-1a2b-4c3d-8e5f-000000000011"}}},{"fullUrl":"urn:uuid:7e4b1c10-1a2b-4c3d-8e5f-00000000000d","resource":{"resourceType":"Observation","id":"7e4b1c10-1a2b-4c3d-8e5f-00000000000d","meta":{"profile":["http://hl7.eu/fhir/laboratory/StructureDefinition/Observation-resultslab-eu-lab"]},"text":{"status":"extensions","div":"<div xmlns=\"http://www.w3.org/1999/xhtml\"><a name=\"Observation_7e4b1c10-1a2b-4c3d-8e5f-00000000000d\"> </a><p class=\"res-header-id\"><b>Generated Narrative: Observation 7e4b1c10-1a2b-4c3d-8e5f-00000000000d</b></p><a name=\"7e4b1c10-1a2b-4c3d-8e5f-00000000000d\"> </a><a name=\"hc7e4b1c10-1a2b-4c3d-8e5f-00000000000d\"> </a><div style=\"display: inline-block; background-color: #d9e0e7; padding: 6px; margin: 4px; border: 1px solid #8da1b4; border-radius: 5px; line-height: 60%\"><p style=\"margin-bottom: 0px\"/><p style=\"margin-bottom: 0px\">Profile: <a href=\"StructureDefinition-Observation-resultslab-eu-lab.html\">Observation Results: laboratory</a></p></div><blockquote><p><b>Extension Definition for Observation.triggeredBy for Version 5.0</b></p><blockquote><p><b>url</b></p>observation</blockquote><p><b>value</b>: <a href=\"Observation-7e4b1c10-1a2b-4c3d-8e5f-00000000000b.html\">Observation U(mittstr)—Bakterieodling</a></p><blockquote><p><b>url</b></p>type</blockquote></blockquote><p><b>status</b>: Final</p><p><b>category</b>: <span title=\"Codes:{http://terminology.hl7.org/CodeSystem/observation-category laboratory}\">Laboratory</span></p><p><b>code</b>: <span title=\"Codes:{http://npu-terminology.org NPU06002}\">Amoxicillin+Klavulansyra</span></p><p><b>subject</b>: <a href=\"Patient-7e4b1c10-1a2b-4c3d-8e5f-000000000017.html\">Anna Andersson  (no stated gender), DoB: 1980-01-01</a></p><p><b>effective</b>: 2018-01-02 14:30:00+0100</p><p><b>performer</b>: <a href=\"Organization-7e4b1c10-1a2b-4c3d-8e5f-000000000016.html\">Organization Laboratoriemedicin Stockholm</a></p><p><b>value</b>: <span title=\"Codes:{http://snomed.info/sct 131196009}\">S</span></p><p><b>interpretation</b>: <span title=\"Codes:{http://terminology.hl7.org/CodeSystem/v3-ObservationInterpretation S}\">Susceptible</span></p><p><b>specimen</b>: <a href=\"Specimen-7e4b1c10-1a2b-4c3d-8e5f-000000000011.html\">Specimen: identifier = LOAD-MOCKS#LOAD-MOCKS-GMH-DEMO-9; type = urine, midstream</a></p></div>"},"extension":[{"extension":[{"url":"observation","valueReference":{"reference":"Observation/7e4b1c10-1a2b-4c3d-8e5f-00000000000b"}},{"url":"type"}],"url":"http://hl7.org/fhir/5.0/StructureDefinition/extension-Observation.triggeredBy"}],"status":"final","category":[{"coding":[{"system":"http://terminology.hl7.org/CodeSystem/observation-category","code":"laboratory","display":"Laboratory"}]}],"code":{"coding":[{"system":"http://npu-terminology.org","code":"NPU06002","display":"Amoxicillin+Klavulansyra"}]},"subject":{"reference":"Patient/7e4b1c10-1a2b-4c3d-8e5f-000000000017"},"effectiveDateTime":"2018-01-02T14:30:00+01:00","performer":[{"reference":"Organization/7e4b1c10-1a2b-4c3d-8e5f-000000000016"}],"valueCodeableConcept":{"coding":[{"system":"http://snomed.info/sct","code":"131196009","display":"S"}]},"interpretation":[{"coding":[{"system":"http://terminology.hl7.org/CodeSystem/v3-ObservationInterpretation","code":"S","display":"Susceptible"}]}],"specimen":{"reference":"Specimen/7e4b1c10-1a2b-4c3d-8e5f-000000000011"}}},{"fullUrl":"urn:uuid:7e4b1c10-1a2b-4c3d-8e5f-00000000000e","resource":{"resourceType":"Observation","id":"7e4b1c10-1a2b-4c3d-8e5f-00000000000e","meta":{"profile":["http://hl7.eu/fhir/laboratory/StructureDefinition/Observation-resultslab-eu-lab"]},"text":{"status":"extensions","div":"<div xmlns=\"http://www.w3.org/1999/xhtml\"><a name=\"Observation_7e4b1c10-1a2b-4c3d-8e5f-00000000000e\"> </a><p class=\"res-header-id\"><b>Generated Narrative: Observation 7e4b1c10-1a2b-4c3d-8e5f-00000000000e</b></p><a name=\"7e4b1c10-1a2b-4c3d-8e5f-00000000000e\"> </a><a name=\"hc7e4b1c10-1a2b-4c3d-8e5f-00000000000e\"> </a><div style=\"display: inline-block; background-color: #d9e0e7; padding: 6px; margin: 4px; border: 1px solid #8da1b4; border-radius: 5px; line-height: 60%\"><p style=\"margin-bottom: 0px\"/><p style=\"margin-bottom: 0px\">Profile: <a href=\"StructureDefinition-Observation-resultslab-eu-lab.html\">Observation Results: laboratory</a></p></div><blockquote><p><b>Extension Definition for Observation.triggeredBy for Version 5.0</b></p><blockquote><p><b>url</b></p>observation</blockquote><p><b>value</b>: <a href=\"Observation-7e4b1c10-1a2b-4c3d-8e5f-00000000000b.html\">Observation U(mittstr)—Bakterieodling</a></p><blockquote><p><b>url</b></p>type</blockquote></blockquote><p><b>status</b>: Final</p><p><b>category</b>: <span title=\"Codes:{http://terminology.hl7.org/CodeSystem/observation-category laboratory}\">Laboratory</span></p><p><b>code</b>: <span title=\"Codes:{http://npu-terminology.org NPU06044}\">Mecillinam</span></p><p><b>subject</b>: <a href=\"Patient-7e4b1c10-1a2b-4c3d-8e5f-000000000017.html\">Anna Andersson  (no stated gender), DoB: 1980-01-01</a></p><p><b>effective</b>: 2018-01-02 14:30:00+0100</p><p><b>performer</b>: <a href=\"Organization-7e4b1c10-1a2b-4c3d-8e5f-000000000016.html\">Organization Laboratoriemedicin Stockholm</a></p><p><b>value</b>: <span title=\"Codes:{http://snomed.info/sct 131196009}\">S</span></p><p><b>interpretation</b>: <span title=\"Codes:{http://terminology.hl7.org/CodeSystem/v3-ObservationInterpretation S}\">Susceptible</span></p><p><b>specimen</b>: <a href=\"Specimen-7e4b1c10-1a2b-4c3d-8e5f-000000000011.html\">Specimen: identifier = LOAD-MOCKS#LOAD-MOCKS-GMH-DEMO-9; type = urine, midstream</a></p></div>"},"extension":[{"extension":[{"url":"observation","valueReference":{"reference":"Observation/7e4b1c10-1a2b-4c3d-8e5f-00000000000b"}},{"url":"type"}],"url":"http://hl7.org/fhir/5.0/StructureDefinition/extension-Observation.triggeredBy"}],"status":"final","category":[{"coding":[{"system":"http://terminology.hl7.org/CodeSystem/observation-category","code":"laboratory","display":"Laboratory"}]}],"code":{"coding":[{"system":"http://npu-terminology.org","code":"NPU06044","display":"Mecillinam"}]},"subject":{"reference":"Patient/7e4b1c10-1a2b-4c3d-8e5f-000000000017"},"effectiveDateTime":"2018-01-02T14:30:00+01:00","performer":[{"reference":"Organization/7e4b1c10-1a2b-4c3d-8e5f-000000000016"}],"valueCodeableConcept":{"coding":[{"system":"http://snomed.info/sct","code":"131196009","display":"S"}]},"interpretation":[{"coding":[{"system":"http://terminology.hl7.org/CodeSystem/v3-ObservationInterpretation","code":"S","display":"Susceptible"}]}],"specimen":{"reference":"Specimen/7e4b1c10-1a2b-4c3d-8e5f-000000000011"}}},{"fullUrl":"urn:uuid:7e4b1c10-1a2b-4c3d-8e5f-00000000000f","resource":{"resourceType":"Observation","id":"7e4b1c10-1a2b-4c3d-8e5f-00000000000f","meta":{"profile":["http://hl7.eu/fhir/laboratory/StructureDefinition/Observation-resultslab-eu-lab"]},"text":{"status":"extensions","div":"<div xmlns=\"http://www.w3.org/1999/xhtml\"><a name=\"Observation_7e4b1c10-1a2b-4c3d-8e5f-00000000000f\"> </a><p class=\"res-header-id\"><b>Generated Narrative: Observation 7e4b1c10-1a2b-4c3d-8e5f-00000000000f</b></p><a name=\"7e4b1c10-1a2b-4c3d-8e5f-00000000000f\"> </a><a name=\"hc7e4b1c10-1a2b-4c3d-8e5f-00000000000f\"> </a><div style=\"display: inline-block; background-color: #d9e0e7; padding: 6px; margin: 4px; border: 1px solid #8da1b4; border-radius: 5px; line-height: 60%\"><p style=\"margin-bottom: 0px\"/><p style=\"margin-bottom: 0px\">Profile: <a href=\"StructureDefinition-Observation-resultslab-eu-lab.html\">Observation Results: laboratory</a></p></div><blockquote><p><b>Extension Definition for Observation.triggeredBy for Version 5.0</b></p><blockquote><p><b>url</b></p>observation</blockquote><p><b>value</b>: <a href=\"Observation-7e4b1c10-1a2b-4c3d-8e5f-00000000000b.html\">Observation U(mittstr)—Bakterieodling</a></p><blockquote><p><b>url</b></p>type</blockquote></blockquote><p><b>status</b>: Final</p><p><b>category</b>: <span title=\"Codes:{http://terminology.hl7.org/CodeSystem/observation-category laboratory}\">Laboratory</span></p><p><b>code</b>: <span title=\"Codes:{http://npu-terminology.org NPU06048}\">Nitrofurantoin</span></p><p><b>subject</b>: <a href=\"Patient-7e4b1c10-1a2b-4c3d-8e5f-000000000017.html\">Anna Andersson  (no stated gender), DoB: 1980-01-01</a></p><p><b>effective</b>: 2018-01-02 14:30:00+0100</p><p><b>performer</b>: <a href=\"Organization-7e4b1c10-1a2b-4c3d-8e5f-000000000016.html\">Organization Laboratoriemedicin Stockholm</a></p><p><b>value</b>: <span title=\"Codes:{http://snomed.info/sct 131196009}\">S</span></p><p><b>interpretation</b>: <span title=\"Codes:{http://terminology.hl7.org/CodeSystem/v3-ObservationInterpretation S}\">Susceptible</span></p><p><b>specimen</b>: <a href=\"Specimen-7e4b1c10-1a2b-4c3d-8e5f-000000000011.html\">Specimen: identifier = LOAD-MOCKS#LOAD-MOCKS-GMH-DEMO-9; type = urine, midstream</a></p></div>"},"extension":[{"extension":[{"url":"observation","valueReference":{"reference":"Observation/7e4b1c10-1a2b-4c3d-8e5f-00000000000b"}},{"url":"type"}],"url":"http://hl7.org/fhir/5.0/StructureDefinition/extension-Observation.triggeredBy"}],"status":"final","category":[{"coding":[{"system":"http://terminology.hl7.org/CodeSystem/observation-category","code":"laboratory","display":"Laboratory"}]}],"code":{"coding":[{"system":"http://npu-terminology.org","code":"NPU06048","display":"Nitrofurantoin"}]},"subject":{"reference":"Patient/7e4b1c10-1a2b-4c3d-8e5f-000000000017"},"effectiveDateTime":"2018-01-02T14:30:00+01:00","performer":[{"reference":"Organization/7e4b1c10-1a2b-4c3d-8e5f-000000000016"}],"valueCodeableConcept":{"coding":[{"system":"http://snomed.info/sct","code":"131196009","display":"S"}]},"interpretation":[{"coding":[{"system":"http://terminology.hl7.org/CodeSystem/v3-ObservationInterpretation","code":"S","display":"Susceptible"}]}],"specimen":{"reference":"Specimen/7e4b1c10-1a2b-4c3d-8e5f-000000000011"}}},{"fullUrl":"urn:uuid:7e4b1c10-1a2b-4c3d-8e5f-000000000010","resource":{"resourceType":"Observation","id":"7e4b1c10-1a2b-4c3d-8e5f-000000000010","meta":{"profile":["http://hl7.eu/fhir/laboratory/StructureDefinition/Observation-resultslab-eu-lab"]},"text":{"status":"extensions","div":"<div xmlns=\"http://www.w3.org/1999/xhtml\"><a name=\"Observation_7e4b1c10-1a2b-4c3d-8e5f-000000000010\"> </a><p class=\"res-header-id\"><b>Generated Narrative: Observation 7e4b1c10-1a2b-4c3d-8e5f-000000000010</b></p><a name=\"7e4b1c10-1a2b-4c3d-8e5f-000000000010\"> </a><a name=\"hc7e4b1c10-1a2b-4c3d-8e5f-000000000010\"> </a><div style=\"display: inline-block; background-color: #d9e0e7; padding: 6px; margin: 4px; border: 1px solid #8da1b4; border-radius: 5px; line-height: 60%\"><p style=\"margin-bottom: 0px\"/><p style=\"margin-bottom: 0px\">Profile: <a href=\"StructureDefinition-Observation-resultslab-eu-lab.html\">Observation Results: laboratory</a></p></div><blockquote><p><b>Extension Definition for Observation.triggeredBy for Version 5.0</b></p><blockquote><p><b>url</b></p>observation</blockquote><p><b>value</b>: <a href=\"Observation-7e4b1c10-1a2b-4c3d-8e5f-00000000000b.html\">Observation U(mittstr)—Bakterieodling</a></p><blockquote><p><b>url</b></p>type</blockquote></blockquote><p><b>status</b>: Final</p><p><b>category</b>: <span title=\"Codes:{http://terminology.hl7.org/CodeSystem/observation-category laboratory}\">Laboratory</span></p><p><b>code</b>: <span title=\"Codes:{http://npu-terminology.org NPU06047}\">Trimetoprim</span></p><p><b>subject</b>: <a href=\"Patient-7e4b1c10-1a2b-4c3d-8e5f-000000000017.html\">Anna Andersson  (no stated gender), DoB: 1980-01-01</a></p><p><b>effective</b>: 2018-01-02 14:30:00+0100</p><p><b>performer</b>: <a href=\"Organization-7e4b1c10-1a2b-4c3d-8e5f-000000000016.html\">Organization Laboratoriemedicin Stockholm</a></p><p><b>value</b>: <span title=\"Codes:{http://snomed.info/sct 131196009}\">S</span></p><p><b>interpretation</b>: <span title=\"Codes:{http://terminology.hl7.org/CodeSystem/v3-ObservationInterpretation S}\">Susceptible</span></p><p><b>specimen</b>: <a href=\"Specimen-7e4b1c10-1a2b-4c3d-8e5f-000000000011.html\">Specimen: identifier = LOAD-MOCKS#LOAD-MOCKS-GMH-DEMO-9; type = urine, midstream</a></p></div>"},"extension":[{"extension":[{"url":"observation","valueReference":{"reference":"Observation/7e4b1c10-1a2b-4c3d-8e5f-00000000000b"}},{"url":"type"}],"url":"http://hl7.org/fhir/5.0/StructureDefinition/extension-Observation.triggeredBy"}],"status":"final","category":[{"coding":[{"system":"http://terminology.hl7.org/CodeSystem/observation-category","code":"laboratory","display":"Laboratory"}]}],"code":{"coding":[{"system":"http://npu-terminology.org","code":"NPU06047","display":"Trimetoprim"}]},"subject":{"reference":"Patient/7e4b1c10-1a2b-4c3d-8e5f-000000000017"},"effectiveDateTime":"2018-01-02T14:30:00+01:00","performer":[{"reference":"Organization/7e4b1c10-1a2b-4c3d-8e5f-000000000016"}],"valueCodeableConcept":{"coding":[{"system":"http://snomed.info/sct","code":"131196009","display":"S"}]},"interpretation":[{"coding":[{"system":"http://terminology.hl7.org/CodeSystem/v3-ObservationInterpretation","code":"S","display":"Susceptible"}]}],"specimen":{"reference":"Specimen/7e4b1c10-1a2b-4c3d-8e5f-000000000011"}}},{"fullUrl":"urn:uuid:7e4b1c10-1a2b-4c3d-8e5f-000000000011","resource":{"resourceType":"Specimen","id":"7e4b1c10-1a2b-4c3d-8e5f-000000000011","meta":{"profile":["http://hl7.eu/fhir/laboratory/StructureDefinition/Specimen-eu-lab"]},"text":{"status":"generated","div":"<div xmlns=\"http://www.w3.org/1999/xhtml\"><a name=\"Specimen_7e4b1c10-1a2b-4c3d-8e5f-000000000011\"> </a><p class=\"res-header-id\"><b>Generated Narrative: Specimen 7e4b1c10-1a2b-4c3d-8e5f-000000000011</b></p><a name=\"7e4b1c10-1a2b-4c3d-8e5f-000000000011\"> </a><a name=\"hc7e4b1c10-1a2b-4c3d-8e5f-000000000011\"> </a><div style=\"display: inline-block; background-color: #d9e0e7; padding: 6px; margin: 4px; border: 1px solid #8da1b4; border-radius: 5px; line-height: 60%\"><p style=\"margin-bottom: 0px\"/><p style=\"margin-bottom: 0px\">Profile: <a href=\"StructureDefinition-Specimen-eu-lab.html\">Specimen: Laboratory</a></p></div><p><b>identifier</b>: <code>LOAD-MOCKS</code>/LOAD-MOCKS-GMH-DEMO-9</p><p><b>type</b>: <span title=\"Codes:{http://snomed.info/sct 258574006}\">urine, midstream</span></p><h3>Collections</h3><table class=\"grid\"><tr><td style=\"display: none\">-</td><td><b>Collected[x]</b></td></tr><tr><td style=\"display: none\">*</td><td>2018-01-02 14:30:00+0100</td></tr></table></div>"},"identifier":[{"system":"LOAD-MOCKS","value":"LOAD-MOCKS-GMH-DEMO-9"}],"type":{"coding":[{"system":"http://snomed.info/sct","code":"258574006","display":"urine, midstream"}]},"collection":{"collectedDateTime":"2018-01-02T14:30:00+01:00"}}},{"fullUrl":"urn:uuid:7e4b1c10-1a2b-4c3d-8e5f-000000000012","resource":{"resourceType":"ServiceRequest","id":"7e4b1c10-1a2b-4c3d-8e5f-000000000012","meta":{"profile":["http://hl7.eu/fhir/laboratory/StructureDefinition/ServiceRequest-eu-lab"]},"text":{"status":"generated","div":"<div xmlns=\"http://www.w3.org/1999/xhtml\"><a name=\"ServiceRequest_7e4b1c10-1a2b-4c3d-8e5f-000000000012\"> </a><p class=\"res-header-id\"><b>Generated Narrative: ServiceRequest 7e4b1c10-1a2b-4c3d-8e5f-000000000012</b></p><a name=\"7e4b1c10-1a2b-4c3d-8e5f-000000000012\"> </a><a name=\"hc7e4b1c10-1a2b-4c3d-8e5f-000000000012\"> </a><div style=\"display: inline-block; background-color: #d9e0e7; padding: 6px; margin: 4px; border: 1px solid #8da1b4; border-radius: 5px; line-height: 60%\"><p style=\"margin-bottom: 0px\"/><p style=\"margin-bottom: 0px\">Profile: <a href=\"StructureDefinition-ServiceRequest-eu-lab.html\">ServiceRequest: Laboratory Order</a></p></div><p><b>identifier</b>: <code>LOAD-MOCKS</code>/LOAD-MOCKS-GMH-DEMO-9</p><p><b>status</b>: Completed</p><p><b>intent</b>: Order</p><p><b>code</b>: <span title=\"Codes:\">Urinodling</span></p><p><b>subject</b>: <a href=\"Patient-7e4b1c10-1a2b-4c3d-8e5f-000000000017.html\">Anna Andersson  (no stated gender), DoB: 1980-01-01</a></p><p><b>authoredOn</b>: 2018-01-02 14:30:00+0100</p><p><b>requester</b>: <a href=\"Practitioner-7e4b1c10-1a2b-4c3d-8e5f-000000000013.html\">Practitioner Johanna Olsson </a></p><p><b>performer</b>: <a href=\"Organization/stockholmLab\">Organization/stockholmLab</a></p></div>"},"identifier":[{"system":"LOAD-MOCKS","value":"LOAD-MOCKS-GMH-DEMO-9"}],"status":"completed","intent":"order","code":{"text":"Urinodling"},"subject":{"reference":"Patient/7e4b1c10-1a2b-4c3d-8e5f-000000000017"},"authoredOn":"2018-01-02T14:30:00+01:00","requester":{"reference":"Practitioner/7e4b1c10-1a2b-4c3d-8e5f-000000000013"},"performer":[{"reference":"Organization/stockholmLab"}]}},{"fullUrl":"urn:uuid:7e4b1c10-1a2b-4c3d-8e5f-000000000013","resource":{"resourceType":"Practitioner","id":"7e4b1c10-1a2b-4c3d-8e5f-000000000013","meta":{"profile":["http://hl7.eu/fhir/base/StructureDefinition/practitioner-eu-core"]},"text":{"status":"generated","div":"<div xmlns=\"http://www.w3.org/1999/xhtml\"><a name=\"Practitioner_7e4b1c10-1a2b-4c3d-8e5f-000000000013\"> </a><p class=\"res-header-id\"><b>Generated Narrative: Practitioner 7e4b1c10-1a2b-4c3d-8e5f-000000000013</b></p><a name=\"7e4b1c10-1a2b-4c3d-8e5f-000000000013\"> </a><a name=\"hc7e4b1c10-1a2b-4c3d-8e5f-000000000013\"> </a><div style=\"display: inline-block; background-color: #d9e0e7; padding: 6px; margin: 4px; border: 1px solid #8da1b4; border-radius: 5px; line-height: 60%\"><p style=\"margin-bottom: 0px\"/><p style=\"margin-bottom: 0px\">Profile: <a href=\"https://build.fhir.org/ig/hl7-eu/base/StructureDefinition-practitioner-eu-core.html\">Practitioner (EU core)</a></p></div><p><b>identifier</b>: <code>urn:oid:1.2.752.129.2.1.4.1</code>/TESTNMT00123-OJFG</p><p><b>name</b>: Johanna Olsson </p><h3>Qualifications</h3><table class=\"grid\"><tr><td style=\"display: none\">-</td><td><b>Code</b></td></tr><tr><td style=\"display: none\">*</td><td><span title=\"Codes:{http://terminology.hl7.org/CodeSystem/v2-0360 MD}\">Läkare</span></td></tr></table></div>"},"identifier":[{"system":"urn:oid:1.2.752.129.2.1.4.1","value":"TESTNMT00123-OJFG"}],"name":[{"family":"Olsson","given":["Johanna"]}],"qualification":[{"code":{"coding":[{"system":"http://terminology.hl7.org/CodeSystem/v2-0360","code":"MD"}],"text":"Läkare"}}]}},{"fullUrl":"urn:uuid:7e4b1c10-1a2b-4c3d-8e5f-000000000014","resource":{"resourceType":"PractitionerRole","id":"7e4b1c10-1a2b-4c3d-8e5f-000000000014","meta":{"profile":["http://hl7.eu/fhir/base/StructureDefinition/practitionerRole-eu-core"]},"text":{"status":"generated","div":"<div xmlns=\"http://www.w3.org/1999/xhtml\"><a name=\"PractitionerRole_7e4b1c10-1a2b-4c3d-8e5f-000000000014\"> </a><p class=\"res-header-id\"><b>Generated Narrative: PractitionerRole 7e4b1c10-1a2b-4c3d-8e5f-000000000014</b></p><a name=\"7e4b1c10-1a2b-4c3d-8e5f-000000000014\"> </a><a name=\"hc7e4b1c10-1a2b-4c3d-8e5f-000000000014\"> </a><div style=\"display: inline-block; background-color: #d9e0e7; padding: 6px; margin: 4px; border: 1px solid #8da1b4; border-radius: 5px; line-height: 60%\"><p style=\"margin-bottom: 0px\"/><p style=\"margin-bottom: 0px\">Profile: <a href=\"https://build.fhir.org/ig/hl7-eu/base/StructureDefinition-practitionerRole-eu-core.html\">PractitionerRole (EU core)</a></p></div><p><b>practitioner</b>: <a href=\"Practitioner-7e4b1c10-1a2b-4c3d-8e5f-000000000013.html\">Practitioner Johanna Olsson </a></p><p><b>organization</b>: <a href=\"Organization-7e4b1c10-1a2b-4c3d-8e5f-000000000015.html\">Organization Akutmottagning, Stockholm</a></p><p><b>code</b>: <span title=\"Codes:{http://terminology.hl7.org/CodeSystem/practitioner-role doctor}\">Doctor</span></p></div>"},"practitioner":{"reference":"Practitioner/7e4b1c10-1a2b-4c3d-8e5f-000000000013"},"organization":{"reference":"Organization/7e4b1c10-1a2b-4c3d-8e5f-000000000015"},"code":[{"coding":[{"system":"http://terminology.hl7.org/CodeSystem/practitioner-role","code":"doctor"}]}]}},{"fullUrl":"urn:uuid:7e4b1c10-1a2b-4c3d-8e5f-000000000015","resource":{"resourceType":"Organization","id":"7e4b1c10-1a2b-4c3d-8e5f-000000000015","meta":{"profile":["http://hl7.eu/fhir/base/StructureDefinition/organization-eu-core"]},"text":{"status":"generated","div":"<div xmlns=\"http://www.w3.org/1999/xhtml\"><a name=\"Organization_7e4b1c10-1a2b-4c3d-8e5f-000000000015\"> </a><p class=\"res-header-id\"><b>Generated Narrative: Organization 7e4b1c10-1a2b-4c3d-8e5f-000000000015</b></p><a name=\"7e4b1c10-1a2b-4c3d-8e5f-000000000015\"> </a><a name=\"hc7e4b1c10-1a2b-4c3d-8e5f-000000000015\"> </a><div style=\"display: inline-block; background-color: #d9e0e7; padding: 6px; margin: 4px; border: 1px solid #8da1b4; border-radius: 5px; line-height: 60%\"><p style=\"margin-bottom: 0px\"/><p style=\"margin-bottom: 0px\">Profile: <a href=\"https://build.fhir.org/ig/hl7-eu/base/StructureDefinition-organization-eu-core.html\">Organization (EU core)</a></p></div><p><b>identifier</b>: <code>urn:oid:1.2.752.129.2.1.4.1</code>/SE2321000198-019221</p><p><b>name</b>: Akutmottagning, Stockholm</p></div>"},"identifier":[{"system":"urn:oid:1.2.752.129.2.1.4.1","value":"SE2321000198-019221"}],"name":"Akutmottagning, Stockholm"}},{"fullUrl":"urn:uuid:7e4b1c10-1a2b-4c3d-8e5f-000000000016","resource":{"resourceType":"Organization","id":"7e4b1c10-1a2b-4c3d-8e5f-000000000016","meta":{"profile":["http://hl7.eu/fhir/base/StructureDefinition/organization-eu-core"]},"text":{"status":"generated","div":"<div xmlns=\"http://www.w3.org/1999/xhtml\"><a name=\"Organization_7e4b1c10-1a2b-4c3d-8e5f-000000000016\"> </a><p class=\"res-header-id\"><b>Generated Narrative: Organization 7e4b1c10-1a2b-4c3d-8e5f-000000000016</b></p><a name=\"7e4b1c10-1a2b-4c3d-8e5f-000000000016\"> </a><a name=\"hc7e4b1c10-1a2b-4c3d-8e5f-000000000016\"> </a><div style=\"display: inline-block; background-color: #d9e0e7; padding: 6px; margin: 4px; border: 1px solid #8da1b4; border-radius: 5px; line-height: 60%\"><p style=\"margin-bottom: 0px\"/><p style=\"margin-bottom: 0px\">Profile: <a href=\"https://build.fhir.org/ig/hl7-eu/base/StructureDefinition-organization-eu-core.html\">Organization (EU core)</a></p></div><p><b>identifier</b>: <code>urn:oid:1.2.752.129.2.1.4.1</code>/SE2321000198-12345</p><p><b>name</b>: Laboratoriemedicin Stockholm</p></div>"},"identifier":[{"system":"urn:oid:1.2.752.129.2.1.4.1","value":"SE2321000198-12345"}],"name":"Laboratoriemedicin Stockholm"}}]}