{"resourceType":"Bundle","id":"Instance-Bundle-ee907eee-c157-4c57-8de3-b13d6487a703","meta":{"profile":["http://hl7.eu/fhir/eps/StructureDefinition/bundle-eu-eps"]},"identifier":{"system":"urn:oid:2.16.840.1.113883.2.51.999","value":"6d2748cc-961c-4c50-ad61-0df218c75665","assigner":{"display":"HL7 Europe"}},"type":"document","timestamp":"2025-08-31T17:41:07Z","entry":[{"fullUrl":"urn:uuid:25a08d62-baab-4e5a-944e-302cb2208dd1","resource":{"resourceType":"Composition","id":"25a08d62-baab-4e5a-944e-302cb2208dd1","meta":{"profile":["http://hl7.eu/fhir/eps/StructureDefinition/composition-eu-eps"]},"text":{"status":"generated","div":"<div xmlns=\"http://www.w3.org/1999/xhtml\"><a name=\"Composition_25a08d62-baab-4e5a-944e-302cb2208dd1\"> </a><p class=\"res-header-id\"><b>Generated Narrative: Composition 25a08d62-baab-4e5a-944e-302cb2208dd1</b></p><a name=\"25a08d62-baab-4e5a-944e-302cb2208dd1\"> </a><a name=\"hc25a08d62-baab-4e5a-944e-302cb2208dd1\"> </a><div style=\"display: inline-block; background-color: #d9e0e7; padding: 6px; margin: 4px; border: 1px solid #8da1b4; border-radius: 5px; line-height: 60%\"><p style=\"margin-bottom: 0px\"/><p style=\"margin-bottom: 0px\">Profile: <a href=\"StructureDefinition-composition-eu-eps.html\">Composition (EPS)</a></p></div><p><b>identifier</b>: <code>urn:oid:2.16.840.1.113883.2.51.999</code>/2d7952c1-c20b-4fb6-b353-d022d9323751</p><p><b>status</b>: Final</p><p><b>type</b>: <span title=\"Codes:{http://loinc.org 60591-5}\">Patient summary Document</span></p><p><b>date</b>: 2025-08-31 17:41:07+0000</p><p><b>author</b>: <a href=\"Bundle-Instance-Bundle-ee907eee-c157-4c57-8de3-b13d6487a703.html#urn-uuid-aca840e8-41ba-48a5-9f8f-1f0925fddc7e\">PractitionerRole</a></p><p><b>title</b>: European Patient Summary</p><p><b>confidentiality</b>: normal</p><p><b>custodian</b>: <a href=\"Bundle-Instance-Bundle-ee907eee-c157-4c57-8de3-b13d6487a703.html#urn-uuid-78377099-ec57-4f56-af1c-0aa20fa5deb2\">Organization Medisch Spectrum Twente</a></p></div>"},"identifier":{"system":"urn:oid:2.16.840.1.113883.2.51.999","value":"2d7952c1-c20b-4fb6-b353-d022d9323751","assigner":{"display":"HL7 Europe"}},"status":"final","type":{"coding":[{"system":"http://loinc.org","code":"60591-5","display":"Patient summary Document"}],"text":"Patient summary Document"},"subject":{"reference":"urn:uuid:4931a6af-ff8b-4c4b-9522-eaa267d0e576"},"date":"2025-08-31T17:41:07Z","author":[{"reference":"urn:uuid:aca840e8-41ba-48a5-9f8f-1f0925fddc7e"}],"title":"European Patient Summary","confidentiality":"N","custodian":{"reference":"urn:uuid:78377099-ec57-4f56-af1c-0aa20fa5deb2"},"section":[{"title":"Problem list","code":{"coding":[{"system":"http://loinc.org","code":"11450-4","display":"Problem list - Reported"}]},"text":{"status":"generated","div":"<div xmlns=\"http://www.w3.org/1999/xhtml\"><table class=\"hl7__ips\"><tr><th>Condition</th><th>Onset Date</th><th>Status</th></tr><tr><td>Osteoarthritis of knee</td><td><span class=\"nb\">2016-06-24</span></td><td>active</td></tr><tr><td>Pulmonary emphysema</td><td><span class=\"nb\">1995-12-27</span></td><td>active</td></tr><tr><td>Prediabetes</td><td><span class=\"nb\">1991-02-13</span></td><td>active</td></tr><tr><td>Anemia</td><td><span class=\"nb\">1991-02-13</span></td><td>active</td></tr></table></div>"},"entry":[{"reference":"urn:uuid:4fc73c1f-652f-4ab5-8de0-bd666c2cd6a7"},{"reference":"urn:uuid:addde46c-bafc-4bbd-9e27-d695fea6e805"},{"reference":"urn:uuid:928991c9-a40b-4609-82e6-386ffa1f82c6"},{"reference":"urn:uuid:f01a0cf4-26ff-45c6-8ba4-46ca7aab86ff"}]},{"title":"History of Past Illness","code":{"coding":[{"system":"http://loinc.org","code":"11348-0","display":"History of Past illness Narrative"}]},"text":{"status":"generated","div":"<div xmlns=\"http://www.w3.org/1999/xhtml\"><table class=\"hl7__ips\"><tr><th>Condition</th><th>Period</th><th>Status</th></tr><tr><td><span class=\"grayedout\">Whiplash injury to neck</span></td><td><span class=\"nb\">2024-01-07 – 2024-03-04</span></td><td><span class=\"grayedout\">inactive</span></td></tr><tr><td><span class=\"grayedout\">Injury of neck</span></td><td><span class=\"nb\">2024-01-07 – 2024-03-04</span></td><td><span class=\"grayedout\">inactive</span></td></tr><tr><td><span class=\"grayedout\">Acute bronchitis</span></td><td><span class=\"nb\">2017-07-11 – 2017-07-21</span></td><td><span class=\"grayedout\">inactive</span></td></tr><tr><td><span class=\"grayedout\">Laceration of thigh</span></td><td><span class=\"nb\">2017-03-17 – 2017-04-02</span></td><td><span class=\"grayedout\">inactive</span></td></tr><tr><td><span class=\"grayedout\">Laceration - injury</span></td><td><span class=\"nb\">2017-03-17 – 2017-04-02</span></td><td><span class=\"grayedout\">inactive</span></td></tr></table></div>"},"entry":[{"reference":"urn:uuid:6090defa-adbc-4887-8597-26a49c46d1d0"},{"reference":"urn:uuid:4e0fb62a-3030-417e-9cf0-da5b16414cbb"},{"reference":"urn:uuid:4f2eec4c-5f92-48c8-a10d-4a0602d853ac"},{"reference":"urn:uuid:2e7d0d57-8bfb-44c4-acc5-fdf851eed433"},{"reference":"urn:uuid:ea70161b-d320-4dc0-996c-cc918ef7221a"}]},{"title":"Medication list","code":{"coding":[{"system":"http://loinc.org","code":"10160-0","display":"History of Medication use Narrative"}]},"text":{"status":"generated","div":"<div xmlns=\"http://www.w3.org/1999/xhtml\"><table class=\"hl7__ips\"><tr><th>Medication</th><th>Since</th><th>Form</th><th>Dosage</th><th>Reason</th></tr><tr><td>Albuterol (as albuterol sulfate) 5 mg/mL solution for inhalation</td><td><span class=\"nb\">2024-07-24</span></td><td>Solution for inhalation</td><td>2.5 mg via nebulizer every 4 to 6 hours as needed</td><td>Pulmonary emphysema (disorder)</td></tr><tr><td>60 ACTUAT Fluticasone propionate 0.25 MG/ACTUAT / salmeterol 0.05 MG/ACTUAT Dry Powder Inhaler</td><td><span class=\"nb\">2024-07-24</span></td><td/><td>1 inhalation (250 mcg/50 mcg) twice daily</td><td>Pulmonary emphysema (disorder)</td></tr><tr><td>Naproxen sodium 220 MG Oral Tablet</td><td><span class=\"nb\">2016-06-24</span></td><td/><td>1 tablet (220 mg) every 8 to 12 hours as needed</td><td>Osteoarthritis of knee</td></tr></table></div>"},"entry":[{"reference":"urn:uuid:0eb2eecb-10d9-4bf7-bc95-4c59fa2b426e"},{"reference":"urn:uuid:a6a70dbd-88e1-4b28-9281-8a2814e8e399"},{"reference":"urn:uuid:a486e764-a4bc-4a0b-94bc-236d3b87ad0c"}]},{"title":"Immunizations list","code":{"coding":[{"system":"http://loinc.org","code":"11369-6","display":"History of Immunization Narrative"}]},"text":{"status":"generated","div":"<div xmlns=\"http://www.w3.org/1999/xhtml\"><table class=\"hl7__ips\"><tr><th>Vaccine</th><th>Date</th></tr><tr><td>Influenza virus antigen only vaccine product</td><td><span class=\"nb\">2024-07-24</span></td></tr><tr><td>SARS-CoV-2 mRNA vaccine</td><td><span class=\"nb\">2021-04-14</span></td></tr><tr><td>Clostridium tetani toxoid antigen adsorbed only vaccine product</td><td><span class=\"nb\">2017-06-14</span></td></tr><tr><td>Live attenuated Human alphaherpesvirus 3 only vaccine product</td><td><span class=\"nb\">2017-06-14</span></td></tr></table></div>"},"entry":[{"reference":"urn:uuid:eeb0369e-28a3-4419-bf6e-956f47c285d6"},{"reference":"urn:uuid:cc89abc3-5060-4cf3-aafc-c235ffaa8f59"},{"reference":"urn:uuid:0072096b-cc78-4e87-8cc6-96ca8911033a"},{"reference":"urn:uuid:487223c6-081b-43bb-8d52-8498fc0033f3"}]},{"title":"Allergies and Intolerances","code":{"coding":[{"system":"http://loinc.org","code":"48765-2","display":"Allergies and adverse reactions Document"}]},"text":{"status":"generated","div":"<div xmlns=\"http://www.w3.org/1999/xhtml\"><table class=\"hl7__ips\"><tr><td>No known allergies or intolerances</td></tr></table></div>"},"entry":[{"reference":"urn:uuid:66e59d31-3200-4f2f-8054-176a234fd9ba"}]},{"title":"Care Plan","code":{"coding":[{"system":"http://loinc.org","code":"18776-5","display":"Plan of care note"}]},"text":{"status":"generated","div":"<div xmlns=\"http://www.w3.org/1999/xhtml\"><table class=\"hl7__ips\"><tr><th>Active Planned Care</th><th>Date</th><th>Reason</th></tr><tr><td>Chronic obstructive pulmonary disease clinical management plan</td><td><span class=\"nb\">1995-12-27</span></td><td>Pulmonary emphysema (disorder)</td></tr><tr><td>Diabetes self management plan</td><td><span class=\"nb\">1991-02-13</span></td><td>Prediabetes</td></tr></table></div>"},"entry":[{"reference":"urn:uuid:d1e2746c-4d92-44a8-8df5-0a8d3df374c0"},{"reference":"urn:uuid:29497404-7167-4e46-85fc-71c9b1a85fde"}]},{"title":"Vital Signs","code":{"coding":[{"system":"http://loinc.org","code":"8716-3","display":"Vital signs"}]},"text":{"status":"generated","div":"<div xmlns=\"http://www.w3.org/1999/xhtml\"><table class=\"hl7__ips\"><tr><th>Vital Signs</th><th>2024-07-24</th><th>2023-07-19</th></tr><tr><td>Body Height</td><td>172.4 cm</td><td>172.4 cm</td></tr><tr><td>Pain severity - 0-10 verbal numeric rating [Score] - Reported</td><td>0 {score}</td><td>3 {score}</td></tr><tr><td>Body Weight</td><td>83.1 kg</td><td>83.1 kg</td></tr><tr><td>Body mass index (BMI) [Ratio]</td><td>28 kg/m2</td><td>28 kg/m2</td></tr><tr><td>Diastolic Blood Pressure</td><td>81 mm[Hg]</td><td>82 mm[Hg]</td></tr><tr><td>Systolic Blood Pressure</td><td>101 mm[Hg]</td><td>112 mm[Hg]</td></tr><tr><td>Heart rate</td><td>78 /min</td><td>67 /min</td></tr><tr><td>Respiratory rate</td><td>12 /min</td><td>14 /min</td></tr></table></div>"},"entry":[{"reference":"urn:uuid:3e7da427-f97d-4cad-9278-538426bd4d13"},{"reference":"urn:uuid:65bbb789-cbe8-43f8-898f-8207f75a477c"},{"reference":"urn:uuid:31e29c8b-db64-4d34-b78f-134a5f39ee08"},{"reference":"urn:uuid:410bc0c1-37de-4122-8132-611cca796409"},{"reference":"urn:uuid:db3dfc5b-8ba2-4ea5-af2f-587d757789c6"},{"reference":"urn:uuid:ac45e425-a787-4cb0-a136-dfb34b8e1741"},{"reference":"urn:uuid:7bc88af6-c061-4d88-8aa2-21657f2150b3"},{"reference":"urn:uuid:b8a486f9-da68-4879-8901-fbe07e2deb4f"},{"reference":"urn:uuid:9b824425-63d8-4402-b4bf-46b4d0a48870"},{"reference":"urn:uuid:e6dab0da-1b78-440c-90f4-94b29ee608e9"},{"reference":"urn:uuid:05a17f72-5b5b-4b8e-9aaa-8b1bdb6d8df7"},{"reference":"urn:uuid:6b9d98c8-cc60-40bf-9df4-a7b2faf10981"},{"reference":"urn:uuid:1e5bb515-5203-46c7-bcbc-98b107313ec4"},{"reference":"urn:uuid:9487a30a-210b-42d9-b4a4-3f840c60358f"},{"reference":"urn:uuid:1e172283-7329-498a-b3e7-8245a0898520"},{"reference":"urn:uuid:72c4603d-dee7-4d66-b071-5d5bdeb108dd"}]},{"title":"Relevant diagnostic tests/laboratory data","code":{"coding":[{"system":"http://loinc.org","code":"30954-2","display":"Relevant diagnostic tests/laboratory data note"}]},"text":{"status":"generated","div":"<div xmlns=\"http://www.w3.org/1999/xhtml\"><table class=\"hl7__ips\"><table class=\"hl7__ips\"><thead><tr><th>Recent Lab Observations</th><th>13 Jul 2022</th><th>Reference Range</th><th>Unit</th></tr></thead><tbody><tr><td>Hemoglobin A1c/Hemoglobin.total in Blood</td><td><strong>6.3 H</strong></td><td>4.8 - 5.7</td><td>%</td></tr><tr><td>Glucose [Mass/volume] in Blood</td><td>81.8</td><td>70 - 99</td><td>mg/dL</td></tr><tr><td>Urea nitrogen [Mass/volume] in Blood</td><td>16.4</td><td>7 - 25</td><td>mg/dL</td></tr><tr><td>Creatinine [Mass/volume] in Blood</td><td>0.8</td><td>0.6 - 1.1</td><td>mg/dL</td></tr><tr><td>Calcium [Mass/volume] in Blood</td><td>9.0</td><td>8.5 - 10.5</td><td>mg/dL</td></tr><tr><td>Sodium [Moles/volume] in Blood</td><td>138.8</td><td>135 - 145</td><td>mmol/L</td></tr><tr><td>Potassium [Moles/volume] in Blood</td><td>5.1</td><td>3.5 - 5.3</td><td>mmol/L</td></tr><tr><td>Chloride [Moles/volume] in Blood</td><td>104.9</td><td>98 - 107</td><td>mmol/L</td></tr><tr><td>Carbon dioxide, total [Moles/volume] in Blood</td><td>24.9</td><td>22 - 32</td><td>mmol/L</td></tr><tr><td>Leukocytes [#/volume] in Blood by Automated count</td><td>8.6</td><td>3.4 - 10.5</td><td>10*3/uL</td></tr><tr><td>Erythrocytes [#/volume] in Blood by Automated count</td><td>4.0</td><td>3.9 - 5.2</td><td>10*6/uL</td></tr><tr><td>Hemoglobin [Mass/volume] in Blood</td><td>14.4</td><td>12 - 16</td><td>g/dL</td></tr><tr><td>Hematocrit [Volume Fraction] of Blood by Automated count</td><td><strong>35.3 L</strong></td><td>36 - 45</td><td>%</td></tr><tr><td>MCV [Entitic volume] by Automated count</td><td>87.6</td><td>82 - 98</td><td>fL</td></tr><tr><td>MCH [Entitic mass] by Automated count</td><td>31.8</td><td>27 - 34.5</td><td>pg</td></tr><tr><td>MCHC [Mass/volume] by Automated count</td><td>33.7</td><td>31 - 35</td><td>g/dL</td></tr><tr><td>Erythrocyte distribution width [Entitic volume] by Automated count</td><td>45.0</td><td>35 - 55</td><td>fL</td></tr><tr><td>Platelets [#/volume] in Blood by Automated count</td><td>448.0</td><td>150 - 450</td><td>10*3/uL</td></tr><tr><td>Platelet distribution width [Entitic volume] in Blood by Automated count</td><td><strong>410.2 H</strong></td><td>11.6 - 17.4</td><td>fL</td></tr><tr><td>Platelet mean volume [Entitic volume] in Blood by Automated count</td><td>11.6</td><td>9.4 - 14</td><td>fL</td></tr></tbody></table></table></div>"},"entry":[{"reference":"urn:uuid:91ab77ce-f661-4483-827a-ce205decb586"},{"reference":"urn:uuid:c6aeeaa5-9636-4777-afee-3ffba17a4322"},{"reference":"urn:uuid:ae67261c-ef10-481e-b7ee-0b8f5c9c8095"},{"reference":"urn:uuid:a26549a1-18da-4ee0-9bcd-f9e4dd808ead"},{"reference":"urn:uuid:f20f3bc6-7d78-4a82-8268-5caa4392e93e"},{"reference":"urn:uuid:61063a8f-4c1c-4f70-9d40-7cc30938ce5f"},{"reference":"urn:uuid:78661e59-9736-4ae5-9498-b4a14505cfce"},{"reference":"urn:uuid:0b04263c-25bb-44b3-87ce-dedf0036796e"},{"reference":"urn:uuid:19fca8b6-7c12-4305-b692-7798fac8f9a0"},{"reference":"urn:uuid:b32998b2-9674-4d87-bfc8-d4da7e13756c"},{"reference":"urn:uuid:e1f8c3b5-7f6c-4fd9-bc64-0cd582e39544"},{"reference":"urn:uuid:b56a5d3a-652e-4d2d-b239-3f1b7e283540"},{"reference":"urn:uuid:ca4bcbeb-b5e0-4f71-8472-d206adffb8d4"},{"reference":"urn:uuid:c554030f-c45e-413d-bce4-3fbc35abae19"},{"reference":"urn:uuid:b21eb787-b054-4dc7-b9df-be0523b72f4b"},{"reference":"urn:uuid:161843e1-0f67-43a1-8b02-9e4319310329"},{"reference":"urn:uuid:e4c2fdec-02cc-4607-a345-812ea97e2545"},{"reference":"urn:uuid:b3260057-502c-4601-88d2-ab831932bf20"},{"reference":"urn:uuid:72eab022-ab3b-4d2d-b4dd-431152f28a93"},{"reference":"urn:uuid:c694aa21-a1e4-422d-bd78-d00b363a90f2"}]},{"title":"Device Use","code":{"coding":[{"system":"http://loinc.org","code":"46264-8","display":"History of medical device use"}]},"text":{"status":"generated","div":"<div xmlns=\"http://www.w3.org/1999/xhtml\"><table class=\"hl7__ips\"><tr><th>Device</th><th>Date (since)</th></tr><tr><td>Oxygen concentrator (physical object)</td><td><span class=\"nb\">2022-07-13</span></td></tr><tr><td>Portable oxygen concentrator (physical object)</td><td><span class=\"nb\">2020-07-01</span></td></tr><tr><td>Wheelchair accessory (physical object)</td><td><span class=\"nb\">2016-06-24</span></td></tr><tr><td>Power-assisted wheelchair (physical object)</td><td><span class=\"nb\">2016-06-24</span></td></tr><tr><td>Blood glucose meter (physical object)</td><td><span class=\"nb\">1991-02-13</span></td></tr></table></div>"},"entry":[{"reference":"urn:uuid:dfaf066d-562d-4fe7-8c39-292a7fae48a4"},{"reference":"urn:uuid:5759e6d8-10da-442e-839e-bdc87592d9e7"},{"reference":"urn:uuid:f510a9d6-eb4b-4119-8b32-4486e94a2ea5"},{"reference":"urn:uuid:83200038-2568-4a68-b68f-9a6c73bcf53a"},{"reference":"urn:uuid:e92aec7b-a9b4-4e23-94b8-a945e853355f"}]}]}},{"fullUrl":"urn:uuid:4931a6af-ff8b-4c4b-9522-eaa267d0e576","resource":{"resourceType":"Patient","id":"4931a6af-ff8b-4c4b-9522-eaa267d0e576","meta":{"profile":["http://hl7.eu/fhir/eps/StructureDefinition/patient-eu-eps"]},"text":{"status":"generated","div":"<div xmlns=\"http://www.w3.org/1999/xhtml\"><a name=\"Patient_4931a6af-ff8b-4c4b-9522-eaa267d0e576\"> </a><table class=\"hl7__ips\"><tr><td>Eliane Muntinga</td><td>1969-02-25</td></tr></table></div>"},"identifier":[{"type":{"coding":[{"system":"http://terminology.hl7.org/CodeSystem/v2-0203","code":"JHN"}]},"system":"http://ec.europa.eu/identifier/eci","value":"7205-367140-9"},{"type":{"coding":[{"system":"http://terminology.hl7.org/CodeSystem/v2-0203","code":"MR"}]},"system":"http://local.setting.eu/identifier","value":"b6206957-775c-b98c-0315-9c82c558231a"}],"name":[{"text":"Eliane Muntinga","family":"Muntinga","given":["Eliane"]}],"telecom":[{"system":"phone","value":"+31 06-31013048"}],"gender":"female","birthDate":"1969-02-25","address":[{"use":"home","type":"physical","line":["Assinkweg 139"],"city":"Haaksbergen","postalCode":"7481 VW","country":"Netherlands"}]}},{"fullUrl":"urn:uuid:aca840e8-41ba-48a5-9f8f-1f0925fddc7e","resource":{"resourceType":"PractitionerRole","id":"aca840e8-41ba-48a5-9f8f-1f0925fddc7e","meta":{"profile":["http://hl7.eu/fhir/base/StructureDefinition/practitionerRole-eu"]},"text":{"status":"generated","div":"<div xmlns=\"http://www.w3.org/1999/xhtml\"><a name=\"PractitionerRole_aca840e8-41ba-48a5-9f8f-1f0925fddc7e\"> </a><p class=\"res-header-id\"><b>Generated Narrative: PractitionerRole aca840e8-41ba-48a5-9f8f-1f0925fddc7e</b></p><a name=\"aca840e8-41ba-48a5-9f8f-1f0925fddc7e\"> </a><a name=\"hcaca840e8-41ba-48a5-9f8f-1f0925fddc7e\"> </a><div style=\"display: inline-block; background-color: #d9e0e7; padding: 6px; margin: 4px; border: 1px solid #8da1b4; border-radius: 5px; line-height: 60%\"><p style=\"margin-bottom: 0px\"/><p style=\"margin-bottom: 0px\">Profile: <a href=\"https://build.fhir.org/ig/hl7-eu/base/StructureDefinition-practitionerRole-eu.html\">PractitionerRole (EU base)</a></p></div><p><b>practitioner</b>: <a href=\"Bundle-Instance-Bundle-ee907eee-c157-4c57-8de3-b13d6487a703.html#urn-uuid-7ba3c833-7f9d-4cfb-91cf-46b7e85e0ab0\">Practitioner Hel Ping </a></p><p><b>organization</b>: <a href=\"Bundle-Instance-Bundle-ee907eee-c157-4c57-8de3-b13d6487a703.html#urn-uuid-78377099-ec57-4f56-af1c-0aa20fa5deb2\">Organization Medisch Spectrum Twente</a></p></div>"},"practitioner":{"reference":"urn:uuid:7ba3c833-7f9d-4cfb-91cf-46b7e85e0ab0"},"organization":{"reference":"urn:uuid:78377099-ec57-4f56-af1c-0aa20fa5deb2"}}},{"fullUrl":"urn:uuid:7ba3c833-7f9d-4cfb-91cf-46b7e85e0ab0","resource":{"resourceType":"Practitioner","id":"7ba3c833-7f9d-4cfb-91cf-46b7e85e0ab0","meta":{"profile":["http://hl7.eu/fhir/base/StructureDefinition/practitioner-eu"]},"text":{"status":"generated","div":"<div xmlns=\"http://www.w3.org/1999/xhtml\"><a name=\"Practitioner_7ba3c833-7f9d-4cfb-91cf-46b7e85e0ab0\"> </a><p class=\"res-header-id\"><b>Generated Narrative: Practitioner 7ba3c833-7f9d-4cfb-91cf-46b7e85e0ab0</b></p><a name=\"7ba3c833-7f9d-4cfb-91cf-46b7e85e0ab0\"> </a><a name=\"hc7ba3c833-7f9d-4cfb-91cf-46b7e85e0ab0\"> </a><div style=\"display: inline-block; background-color: #d9e0e7; padding: 6px; margin: 4px; border: 1px solid #8da1b4; border-radius: 5px; line-height: 60%\"><p style=\"margin-bottom: 0px\"/><p style=\"margin-bottom: 0px\">Profile: <a href=\"https://build.fhir.org/ig/hl7-eu/base/StructureDefinition-practitioner-eu.html\">Practitioner (EU base)</a></p></div><p><b>name</b>: Hel Ping </p></div>"},"name":[{"family":"Ping","given":["Hel"],"prefix":["Dr."]}]}},{"fullUrl":"urn:uuid:78377099-ec57-4f56-af1c-0aa20fa5deb2","resource":{"resourceType":"Organization","id":"78377099-ec57-4f56-af1c-0aa20fa5deb2","meta":{"profile":["http://hl7.eu/fhir/base/StructureDefinition/organization-eu"]},"text":{"status":"generated","div":"<div xmlns=\"http://www.w3.org/1999/xhtml\"><a name=\"Organization_78377099-ec57-4f56-af1c-0aa20fa5deb2\"> </a><p class=\"res-header-id\"><b>Generated Narrative: Organization 78377099-ec57-4f56-af1c-0aa20fa5deb2</b></p><a name=\"78377099-ec57-4f56-af1c-0aa20fa5deb2\"> </a><a name=\"hc78377099-ec57-4f56-af1c-0aa20fa5deb2\"> </a><div style=\"display: inline-block; background-color: #d9e0e7; padding: 6px; margin: 4px; border: 1px solid #8da1b4; border-radius: 5px; line-height: 60%\"><p style=\"margin-bottom: 0px\"/><p style=\"margin-bottom: 0px\">Profile: <a href=\"https://build.fhir.org/ig/hl7-eu/base/StructureDefinition-organization-eu.html\">Organization (EU base)</a></p></div><p><b>identifier</b>: <code>urn:oid:2.16.840.1.113883.2.51.999</code>/7720c3b9-14de-4f91-be49-659a23f327b5</p><p><b>name</b>: Medisch Spectrum Twente</p><p><b>address</b>: Koningsplein 1 Enschede 7513 ER Netherlands </p></div>"},"identifier":[{"system":"urn:oid:2.16.840.1.113883.2.51.999","value":"7720c3b9-14de-4f91-be49-659a23f327b5","assigner":{"display":"HL7 Europe"}}],"name":"Medisch Spectrum Twente","address":[{"line":["Koningsplein 1"],"city":"Enschede","postalCode":"7513 ER","country":"Netherlands"}]}},{"fullUrl":"urn:uuid:4fc73c1f-652f-4ab5-8de0-bd666c2cd6a7","resource":{"resourceType":"Condition","id":"4fc73c1f-652f-4ab5-8de0-bd666c2cd6a7","meta":{"profile":["http://hl7.org/fhir/uv/ips/StructureDefinition/Condition-uv-ips"]},"text":{"status":"generated","div":"<div xmlns=\"http://www.w3.org/1999/xhtml\"><a name=\"Condition_4fc73c1f-652f-4ab5-8de0-bd666c2cd6a7\"> </a><table class=\"hl7__ips\"><tr><td>Osteoarthritis of knee</td><td><span class=\"nb\">2016-06-24</span></td><td>active</td></tr></table></div>"},"clinicalStatus":{"coding":[{"system":"http://terminology.hl7.org/CodeSystem/condition-clinical","code":"active"}]},"category":[{"coding":[{"system":"http://terminology.hl7.org/CodeSystem/condition-category","code":"problem-list-item","display":"Problem List Item"}]}],"code":{"coding":[{"system":"http://snomed.info/sct","code":"239873007","display":"Osteoarthritis of knee (disorder)"}],"text":"Osteoarthritis of knee"},"subject":{"reference":"urn:uuid:4931a6af-ff8b-4c4b-9522-eaa267d0e576","display":"Eliane Muntinga"},"onsetDateTime":"2016-06-24","asserter":{"reference":"urn:uuid:7ba3c833-7f9d-4cfb-91cf-46b7e85e0ab0","display":"Dr. Hel Ping"}}},{"fullUrl":"urn:uuid:addde46c-bafc-4bbd-9e27-d695fea6e805","resource":{"resourceType":"Condition","id":"addde46c-bafc-4bbd-9e27-d695fea6e805","meta":{"profile":["http://hl7.org/fhir/uv/ips/StructureDefinition/Condition-uv-ips"]},"text":{"status":"generated","div":"<div xmlns=\"http://www.w3.org/1999/xhtml\"><a name=\"Condition_addde46c-bafc-4bbd-9e27-d695fea6e805\"> </a><table class=\"hl7__ips\"><tr><td>Pulmonary emphysema</td><td><span class=\"nb\">1995-12-27</span></td><td>active</td></tr></table></div>"},"clinicalStatus":{"coding":[{"system":"http://terminology.hl7.org/CodeSystem/condition-clinical","code":"active"}]},"category":[{"coding":[{"system":"http://terminology.hl7.org/CodeSystem/condition-category","code":"problem-list-item","display":"Problem List Item"}]}],"code":{"coding":[{"system":"http://snomed.info/sct","code":"87433001","display":"Pulmonary emphysema (disorder)"}],"text":"Pulmonary emphysema"},"subject":{"reference":"urn:uuid:4931a6af-ff8b-4c4b-9522-eaa267d0e576","display":"Eliane Muntinga"},"onsetDateTime":"1995-12-27","asserter":{"reference":"urn:uuid:7ba3c833-7f9d-4cfb-91cf-46b7e85e0ab0","display":"Dr. Hel Ping"}}},{"fullUrl":"urn:uuid:928991c9-a40b-4609-82e6-386ffa1f82c6","resource":{"resourceType":"Condition","id":"928991c9-a40b-4609-82e6-386ffa1f82c6","meta":{"profile":["http://hl7.org/fhir/uv/ips/StructureDefinition/Condition-uv-ips"]},"text":{"status":"generated","div":"<div xmlns=\"http://www.w3.org/1999/xhtml\"><a name=\"Condition_928991c9-a40b-4609-82e6-386ffa1f82c6\"> </a><table class=\"hl7__ips\"><tr><td>Prediabetes</td><td><span class=\"nb\">1991-02-13</span></td><td>active</td></tr></table></div>"},"clinicalStatus":{"coding":[{"system":"http://terminology.hl7.org/CodeSystem/condition-clinical","code":"active"}]},"category":[{"coding":[{"system":"http://terminology.hl7.org/CodeSystem/condition-category","code":"problem-list-item","display":"Problem List Item"}]}],"code":{"coding":[{"system":"http://snomed.info/sct","code":"15777000","display":"Prediabetes (disorder)"}],"text":"Prediabetes"},"subject":{"reference":"urn:uuid:4931a6af-ff8b-4c4b-9522-eaa267d0e576","display":"Eliane Muntinga"},"onsetDateTime":"1991-02-13","asserter":{"reference":"urn:uuid:7ba3c833-7f9d-4cfb-91cf-46b7e85e0ab0","display":"Dr. Hel Ping"}}},{"fullUrl":"urn:uuid:f01a0cf4-26ff-45c6-8ba4-46ca7aab86ff","resource":{"resourceType":"Condition","id":"f01a0cf4-26ff-45c6-8ba4-46ca7aab86ff","meta":{"profile":["http://hl7.org/fhir/uv/ips/StructureDefinition/Condition-uv-ips"]},"text":{"status":"generated","div":"<div xmlns=\"http://www.w3.org/1999/xhtml\"><a name=\"Condition_f01a0cf4-26ff-45c6-8ba4-46ca7aab86ff\"> </a><table class=\"hl7__ips\"><tr><td>Anemia</td><td><span class=\"nb\">1991-02-13</span></td><td>active</td></tr></table></div>"},"clinicalStatus":{"coding":[{"system":"http://terminology.hl7.org/CodeSystem/condition-clinical","code":"active"}]},"category":[{"coding":[{"system":"http://terminology.hl7.org/CodeSystem/condition-category","code":"problem-list-item","display":"Problem List Item"}]}],"code":{"coding":[{"system":"http://snomed.info/sct","code":"271737000","display":"Anemia (disorder)"}],"text":"Anemia"},"subject":{"reference":"urn:uuid:4931a6af-ff8b-4c4b-9522-eaa267d0e576","display":"Eliane Muntinga"},"onsetDateTime":"1991-02-13","asserter":{"reference":"urn:uuid:7ba3c833-7f9d-4cfb-91cf-46b7e85e0ab0","display":"Dr. Hel Ping"}}},{"fullUrl":"urn:uuid:6090defa-adbc-4887-8597-26a49c46d1d0","resource":{"resourceType":"Condition","id":"6090defa-adbc-4887-8597-26a49c46d1d0","meta":{"profile":["http://hl7.org/fhir/uv/ips/StructureDefinition/Condition-uv-ips"]},"text":{"status":"generated","div":"<div xmlns=\"http://www.w3.org/1999/xhtml\"><a name=\"Condition_6090defa-adbc-4887-8597-26a49c46d1d0\"> </a><table class=\"hl7__ips\"><tr><td><span class=\"grayedout\">Whiplash injury to neck</span></td><td><span class=\"nb\">2024-01-07 – 2024-03-04</span></td><td><span class=\"grayedout\">inactive</span></td></tr></table></div>"},"clinicalStatus":{"coding":[{"system":"http://terminology.hl7.org/CodeSystem/condition-clinical","code":"inactive"}]},"category":[{"coding":[{"system":"http://terminology.hl7.org/CodeSystem/condition-category","code":"problem-list-item","display":"Problem List Item"}]}],"code":{"coding":[{"system":"http://snomed.info/sct","code":"39848009","display":"Whiplash injury to neck (disorder)"}],"text":"Whiplash injury to neck"},"subject":{"reference":"urn:uuid:4931a6af-ff8b-4c4b-9522-eaa267d0e576","display":"Eliane Muntinga"},"onsetDateTime":"2024-01-07","abatementDateTime":"2024-03-04","asserter":{"reference":"urn:uuid:7ba3c833-7f9d-4cfb-91cf-46b7e85e0ab0","display":"Dr. Hel Ping"}}},{"fullUrl":"urn:uuid:4e0fb62a-3030-417e-9cf0-da5b16414cbb","resource":{"resourceType":"Condition","id":"4e0fb62a-3030-417e-9cf0-da5b16414cbb","meta":{"profile":["http://hl7.org/fhir/uv/ips/StructureDefinition/Condition-uv-ips"]},"text":{"status":"generated","div":"<div xmlns=\"http://www.w3.org/1999/xhtml\"><a name=\"Condition_4e0fb62a-3030-417e-9cf0-da5b16414cbb\"> </a><table class=\"hl7__ips\"><tr><td><span class=\"grayedout\">Injury of neck</span></td><td><span class=\"nb\">2024-01-07 – 2024-03-04</span></td><td><span class=\"grayedout\">inactive</span></td></tr></table></div>"},"clinicalStatus":{"coding":[{"system":"http://terminology.hl7.org/CodeSystem/condition-clinical","code":"inactive"}]},"category":[{"coding":[{"system":"http://terminology.hl7.org/CodeSystem/condition-category","code":"problem-list-item","display":"Problem List Item"}]}],"code":{"coding":[{"system":"http://snomed.info/sct","code":"90460009","display":"Injury of neck (disorder)"}],"text":"Injury of neck"},"subject":{"reference":"urn:uuid:4931a6af-ff8b-4c4b-9522-eaa267d0e576","display":"Eliane Muntinga"},"onsetDateTime":"2024-01-07","abatementDateTime":"2024-03-04","asserter":{"reference":"urn:uuid:7ba3c833-7f9d-4cfb-91cf-46b7e85e0ab0","display":"Dr. Hel Ping"}}},{"fullUrl":"urn:uuid:4f2eec4c-5f92-48c8-a10d-4a0602d853ac","resource":{"resourceType":"Condition","id":"4f2eec4c-5f92-48c8-a10d-4a0602d853ac","meta":{"profile":["http://hl7.org/fhir/uv/ips/StructureDefinition/Condition-uv-ips"]},"text":{"status":"generated","div":"<div xmlns=\"http://www.w3.org/1999/xhtml\"><a name=\"Condition_4f2eec4c-5f92-48c8-a10d-4a0602d853ac\"> </a><table class=\"hl7__ips\"><tr><td><span class=\"grayedout\">Acute bronchitis</span></td><td><span class=\"nb\">2017-07-11 – 2017-07-21</span></td><td><span class=\"grayedout\">inactive</span></td></tr></table></div>"},"clinicalStatus":{"coding":[{"system":"http://terminology.hl7.org/CodeSystem/condition-clinical","code":"inactive"}]},"category":[{"coding":[{"system":"http://terminology.hl7.org/CodeSystem/condition-category","code":"problem-list-item","display":"Problem List Item"}]}],"code":{"coding":[{"system":"http://snomed.info/sct","code":"10509002","display":"Acute bronchitis (disorder)"}],"text":"Acute bronchitis"},"subject":{"reference":"urn:uuid:4931a6af-ff8b-4c4b-9522-eaa267d0e576","display":"Eliane Muntinga"},"onsetDateTime":"2017-07-11","abatementDateTime":"2017-07-21","asserter":{"reference":"urn:uuid:7ba3c833-7f9d-4cfb-91cf-46b7e85e0ab0","display":"Dr. Hel Ping"}}},{"fullUrl":"urn:uuid:2e7d0d57-8bfb-44c4-acc5-fdf851eed433","resource":{"resourceType":"Condition","id":"2e7d0d57-8bfb-44c4-acc5-fdf851eed433","meta":{"profile":["http://hl7.org/fhir/uv/ips/StructureDefinition/Condition-uv-ips"]},"text":{"status":"generated","div":"<div xmlns=\"http://www.w3.org/1999/xhtml\"><a name=\"Condition_2e7d0d57-8bfb-44c4-acc5-fdf851eed433\"> </a><table class=\"hl7__ips\"><tr><td><span class=\"grayedout\">Laceration of thigh</span></td><td><span class=\"nb\">2017-03-17 – 2017-04-02</span></td><td><span class=\"grayedout\">inactive</span></td></tr></table></div>"},"clinicalStatus":{"coding":[{"system":"http://terminology.hl7.org/CodeSystem/condition-clinical","code":"inactive"}]},"category":[{"coding":[{"system":"http://terminology.hl7.org/CodeSystem/condition-category","code":"problem-list-item","display":"Problem List Item"}]}],"code":{"coding":[{"system":"http://snomed.info/sct","code":"283385000","display":"Laceration of thigh (disorder)"}],"text":"Laceration of thigh"},"subject":{"reference":"urn:uuid:4931a6af-ff8b-4c4b-9522-eaa267d0e576","display":"Eliane Muntinga"},"onsetDateTime":"2017-03-17","abatementDateTime":"2017-04-02","asserter":{"reference":"urn:uuid:7ba3c833-7f9d-4cfb-91cf-46b7e85e0ab0","display":"Dr. Hel Ping"}}},{"fullUrl":"urn:uuid:ea70161b-d320-4dc0-996c-cc918ef7221a","resource":{"resourceType":"Condition","id":"ea70161b-d320-4dc0-996c-cc918ef7221a","meta":{"profile":["http://hl7.org/fhir/uv/ips/StructureDefinition/Condition-uv-ips"]},"text":{"status":"generated","div":"<div xmlns=\"http://www.w3.org/1999/xhtml\"><a name=\"Condition_ea70161b-d320-4dc0-996c-cc918ef7221a\"> </a><table class=\"hl7__ips\"><tr><td><span class=\"grayedout\">Laceration - injury</span></td><td><span class=\"nb\">2017-03-17 – 2017-04-02</span></td><td><span class=\"grayedout\">inactive</span></td></tr></table></div>"},"clinicalStatus":{"coding":[{"system":"http://terminology.hl7.org/CodeSystem/condition-clinical","code":"inactive"}]},"category":[{"coding":[{"system":"http://terminology.hl7.org/CodeSystem/condition-category","code":"problem-list-item","display":"Problem List Item"}]}],"code":{"coding":[{"system":"http://snomed.info/sct","code":"312608009","display":"Laceration - injury (disorder)"}],"text":"Laceration - injury"},"subject":{"reference":"urn:uuid:4931a6af-ff8b-4c4b-9522-eaa267d0e576","display":"Eliane Muntinga"},"onsetDateTime":"2017-03-17","abatementDateTime":"2017-04-02","asserter":{"reference":"urn:uuid:7ba3c833-7f9d-4cfb-91cf-46b7e85e0ab0","display":"Dr. Hel Ping"}}},{"fullUrl":"urn:uuid:07c0de63-2b56-4b2f-9179-c06a418e7681","resource":{"resourceType":"Medication","id":"07c0de63-2b56-4b2f-9179-c06a418e7681","meta":{"profile":["http://hl7.eu/fhir/eps/StructureDefinition/Medication-eu-eps"]},"text":{"status":"generated","div":"<div xmlns=\"http://www.w3.org/1999/xhtml\"><a name=\"Medication_07c0de63-2b56-4b2f-9179-c06a418e7681\"> </a>Albuterol (as albuterol sulfate) 5 mg/mL solution for inhalation, Solution for inhalation</div>"},"code":{"coding":[{"system":"http://www.nlm.nih.gov/research/umls/rxnorm","code":"245314","display":"albuterol 5 MG/ML Inhalation Solution"},{"system":"http://snomed.info/sct","code":"1197460000","display":"Product containing precisely salbutamol (as salbutamol sulfate) 5 milligram/1 milliliter conventional release solution for inhalation (clinical drug)"}],"text":"Albuterol (as albuterol sulfate) 5 mg/mL solution for inhalation"},"form":{"coding":[{"system":"http://snomed.info/sct","code":"420641004","display":"Solution for inhalation\n"}]},"ingredient":[{"itemCodeableConcept":{"coding":[{"system":"http://snomed.info/sct","code":"48474002","display":"Albuterol sulfate"}]},"isActive":true}]}},{"fullUrl":"urn:uuid:0eb2eecb-10d9-4bf7-bc95-4c59fa2b426e","resource":{"resourceType":"MedicationStatement","id":"0eb2eecb-10d9-4bf7-bc95-4c59fa2b426e","meta":{"profile":["http://hl7.eu/fhir/eps/StructureDefinition/MedicationStatement-eu-eps"]},"text":{"status":"generated","div":"<div xmlns=\"http://www.w3.org/1999/xhtml\"><a name=\"MedicationStatement_0eb2eecb-10d9-4bf7-bc95-4c59fa2b426e\"> </a><table class=\"hl7__ips\"><tr><td>Albuterol (as albuterol sulfate) 5 mg/mL solution for inhalation</td><td><span class=\"nb\">2024-07-24</span></td><td>Solution for inhalation</td><td>2.5 mg via nebulizer every 4 to 6 hours as needed</td><td>Pulmonary emphysema (disorder)</td></tr></table></div>"},"status":"active","medicationReference":{"reference":"urn:uuid:07c0de63-2b56-4b2f-9179-c06a418e7681","display":"Albuterol (as albuterol sulfate) 5 mg/mL solution for inhalation"},"subject":{"reference":"urn:uuid:4931a6af-ff8b-4c4b-9522-eaa267d0e576","display":"Eliane Muntinga"},"effectivePeriod":{"start":"2024-07-24"},"reasonCode":[{"coding":[{"system":"http://snomed.info/sct","code":"87433001","display":"Pulmonary emphysema (disorder)"}]}],"dosage":[{"text":"2.5 mg via nebulizer every 4 to 6 hours as needed","timing":{"repeat":{"frequency":1,"period":4,"periodUnit":"h"}},"asNeededBoolean":true,"doseAndRate":[{"doseQuantity":{"value":2.5,"unit":"mg","code":"mg"}}]}]}},{"fullUrl":"urn:uuid:2d64508c-8d3f-474d-b749-f63fbdd9afc2","resource":{"resourceType":"Medication","id":"2d64508c-8d3f-474d-b749-f63fbdd9afc2","meta":{"profile":["http://hl7.eu/fhir/eps/StructureDefinition/Medication-eu-eps"]},"text":{"status":"generated","div":"<div xmlns=\"http://www.w3.org/1999/xhtml\"><a name=\"Medication_2d64508c-8d3f-474d-b749-f63fbdd9afc2\"> </a>60 ACTUAT Fluticasone propionate 0.25 MG/ACTUAT / salmeterol 0.05 MG/ACTUAT Dry Powder Inhaler,</div>"},"code":{"coding":[{"system":"http://www.nlm.nih.gov/research/umls/rxnorm","code":"896209","display":"60 ACTUAT Fluticasone propionate 0.25 MG/ACTUAT / salmeterol 0.05 MG/ACTUAT Dry Powder Inhaler"}],"text":"60 ACTUAT Fluticasone propionate 0.25 MG/ACTUAT / salmeterol 0.05 MG/ACTUAT Dry Powder Inhaler"}}},{"fullUrl":"urn:uuid:a6a70dbd-88e1-4b28-9281-8a2814e8e399","resource":{"resourceType":"MedicationStatement","id":"a6a70dbd-88e1-4b28-9281-8a2814e8e399","meta":{"profile":["http://hl7.eu/fhir/eps/StructureDefinition/MedicationStatement-eu-eps"]},"text":{"status":"generated","div":"<div xmlns=\"http://www.w3.org/1999/xhtml\"><a name=\"MedicationStatement_a6a70dbd-88e1-4b28-9281-8a2814e8e399\"> </a><table class=\"hl7__ips\"><tr><td>60 ACTUAT Fluticasone propionate 0.25 MG/ACTUAT / salmeterol 0.05 MG/ACTUAT Dry Powder Inhaler</td><td><span class=\"nb\">2024-07-24</span></td><td/><td>1 inhalation (250 mcg/50 mcg) twice daily</td><td>Pulmonary emphysema (disorder)</td></tr></table></div>"},"status":"active","medicationReference":{"reference":"urn:uuid:2d64508c-8d3f-474d-b749-f63fbdd9afc2","display":"60 ACTUAT Fluticasone propionate 0.25 MG/ACTUAT / salmeterol 0.05 MG/ACTUAT Dry Powder Inhaler"},"subject":{"reference":"urn:uuid:4931a6af-ff8b-4c4b-9522-eaa267d0e576","display":"Eliane Muntinga"},"effectivePeriod":{"start":"2024-07-24"},"reasonCode":[{"coding":[{"system":"http://snomed.info/sct","code":"87433001","display":"Pulmonary emphysema (disorder)"}]}],"dosage":[{"text":"1 inhalation (250 mcg/50 mcg) twice daily","timing":{"repeat":{"frequency":2,"period":1,"periodUnit":"d"}},"asNeededBoolean":false,"doseAndRate":[{"doseQuantity":{"value":1,"unit":"actuat","code":"{actuat}"}}]}]}},{"fullUrl":"urn:uuid:5e2921f0-6da0-410d-8a7c-4f239f176c27","resource":{"resourceType":"Medication","id":"5e2921f0-6da0-410d-8a7c-4f239f176c27","meta":{"profile":["http://hl7.eu/fhir/eps/StructureDefinition/Medication-eu-eps"]},"text":{"status":"generated","div":"<div xmlns=\"http://www.w3.org/1999/xhtml\"><a name=\"Medication_5e2921f0-6da0-410d-8a7c-4f239f176c27\"> </a>Naproxen sodium 220 MG Oral Tablet,</div>"},"code":{"coding":[{"system":"http://www.nlm.nih.gov/research/umls/rxnorm","code":"849574","display":"Naproxen sodium 220 MG Oral Tablet"}],"text":"Naproxen sodium 220 MG Oral Tablet"}}},{"fullUrl":"urn:uuid:a486e764-a4bc-4a0b-94bc-236d3b87ad0c","resource":{"resourceType":"MedicationStatement","id":"a486e764-a4bc-4a0b-94bc-236d3b87ad0c","meta":{"profile":["http://hl7.eu/fhir/eps/StructureDefinition/MedicationStatement-eu-eps"]},"text":{"status":"generated","div":"<div xmlns=\"http://www.w3.org/1999/xhtml\"><a name=\"MedicationStatement_a486e764-a4bc-4a0b-94bc-236d3b87ad0c\"> </a><table class=\"hl7__ips\"><tr><td>Naproxen sodium 220 MG Oral Tablet</td><td><span class=\"nb\">2016-06-24</span></td><td/><td>1 tablet (220 mg) every 8 to 12 hours as needed</td><td>Osteoarthritis of knee</td></tr></table></div>"},"status":"active","medicationReference":{"reference":"urn:uuid:5e2921f0-6da0-410d-8a7c-4f239f176c27","display":"Naproxen sodium 220 MG Oral Tablet"},"subject":{"reference":"urn:uuid:4931a6af-ff8b-4c4b-9522-eaa267d0e576","display":"Eliane Muntinga"},"effectivePeriod":{"start":"2016-06-24"},"reasonCode":[{"coding":[{"system":"http://snomed.info/sct","code":"239873007","display":"Osteoarthritis of knee"}]}],"dosage":[{"text":"1 tablet (220 mg) every 8 to 12 hours as needed","timing":{"repeat":{"frequency":1,"period":8,"periodUnit":"h"}},"asNeededBoolean":true,"doseAndRate":[{"doseQuantity":{"value":1,"unit":"{tbl}","code":"{tbl}"}}]}]}},{"fullUrl":"urn:uuid:eeb0369e-28a3-4419-bf6e-956f47c285d6","resource":{"resourceType":"Immunization","id":"eeb0369e-28a3-4419-bf6e-956f47c285d6","meta":{"profile":["http://hl7.org/fhir/uv/ips/StructureDefinition/Immunization-uv-ips"]},"text":{"status":"generated","div":"<div xmlns=\"http://www.w3.org/1999/xhtml\"><a name=\"Immunization_eeb0369e-28a3-4419-bf6e-956f47c285d6\"> </a><table class=\"hl7__ips\"><tr><td>Influenza virus antigen only vaccine product</td><td><span class=\"nb\">2024-07-24</span></td></tr></table></div>"},"status":"completed","vaccineCode":{"coding":[{"system":"http://snomed.info/sct","code":"1181000221105","display":"Vaccine product containing only Influenza virus antigen (medicinal product)"},{"system":"http://www.whocc.no/atc","code":"J07BB02","display":"influenza, inactivated, split virus or surface antigen"},{"system":"http://hl7.org/fhir/sid/cvx","code":"140","display":"Influenza  seasonal  injectable  preservative free"}],"text":"Influenza virus antigen only vaccine product"},"patient":{"reference":"urn:uuid:4931a6af-ff8b-4c4b-9522-eaa267d0e576","display":"Eliane Muntinga"},"occurrenceDateTime":"2024-07-24","lotNumber":"FO-yxFzM6","expirationDate":"2025-04-01","site":{"coding":[{"system":"http://snomed.info/sct","code":"244979005","display":"Entire muscle of upper arm"}],"text":"Entire muscle of upper arm"},"route":{"coding":[{"system":"http://snomed.info/sct","code":"78421000","display":"Intramuscular route"}],"text":"Intramuscular route"}}},{"fullUrl":"urn:uuid:cc89abc3-5060-4cf3-aafc-c235ffaa8f59","resource":{"resourceType":"Immunization","id":"cc89abc3-5060-4cf3-aafc-c235ffaa8f59","meta":{"profile":["http://hl7.org/fhir/uv/ips/StructureDefinition/Immunization-uv-ips"]},"text":{"status":"generated","div":"<div xmlns=\"http://www.w3.org/1999/xhtml\"><a name=\"Immunization_cc89abc3-5060-4cf3-aafc-c235ffaa8f59\"> </a><table class=\"hl7__ips\"><tr><td>SARS-CoV-2 mRNA vaccine</td><td><span class=\"nb\">2021-04-14</span></td></tr></table></div>"},"status":"completed","vaccineCode":{"coding":[{"system":"http://snomed.info/sct","code":"1119349007","display":"Vaccine product containing SARS-CoV-2 mRNA"},{"system":"http://www.whocc.no/atc","code":"J07BX03","display":"COVID-19 mRNA vaccines"},{"system":"http://hl7.org/fhir/sid/cvx","code":"208","display":"SARS-COV-2 (COVID-19) vaccine  mRNA  spike protein  LNP  preservative free  30 mcg/0.3mL dose"}],"text":"SARS-CoV-2 mRNA vaccine"},"patient":{"reference":"urn:uuid:4931a6af-ff8b-4c4b-9522-eaa267d0e576","display":"Eliane Muntinga"},"occurrenceDateTime":"2021-04-14","lotNumber":"HR-gIwSmiXmP","expirationDate":"2021-10-04","site":{"coding":[{"system":"http://snomed.info/sct","code":"244979005","display":"Entire muscle of upper arm"}],"text":"Entire muscle of upper arm"},"route":{"coding":[{"system":"http://snomed.info/sct","code":"78421000","display":"Intramuscular route"}],"text":"Intramuscular route"}}},{"fullUrl":"urn:uuid:0072096b-cc78-4e87-8cc6-96ca8911033a","resource":{"resourceType":"Immunization","id":"0072096b-cc78-4e87-8cc6-96ca8911033a","meta":{"profile":["http://hl7.org/fhir/uv/ips/StructureDefinition/Immunization-uv-ips"]},"text":{"status":"generated","div":"<div xmlns=\"http://www.w3.org/1999/xhtml\"><a name=\"Immunization_0072096b-cc78-4e87-8cc6-96ca8911033a\"> </a><table class=\"hl7__ips\"><tr><td>Clostridium tetani toxoid antigen adsorbed only vaccine product</td><td><span class=\"nb\">2017-06-14</span></td></tr></table></div>"},"status":"completed","vaccineCode":{"coding":[{"system":"http://snomed.info/sct","code":"777725002","display":"Vaccine product containing only Clostridium tetani toxoid antigen adsorbed (medicinal product)"},{"system":"http://www.whocc.no/atc","code":"J07AM51","display":"tetanus toxoid, combinations with diphtheria toxoid"},{"system":"http://hl7.org/fhir/sid/cvx","code":"113","display":"Td (adult)  5 Lf tetanus toxoid  preservative free  adsorbed"}],"text":"Clostridium tetani toxoid antigen adsorbed only vaccine product"},"patient":{"reference":"urn:uuid:4931a6af-ff8b-4c4b-9522-eaa267d0e576","display":"Eliane Muntinga"},"occurrenceDateTime":"2017-06-14","lotNumber":"YT-8YfXxhr","expirationDate":"2018-05-27","site":{"coding":[{"system":"http://snomed.info/sct","code":"244979005","display":"Entire muscle of upper arm"}],"text":"Entire muscle of upper arm"},"route":{"coding":[{"system":"http://snomed.info/sct","code":"78421000","display":"Intramuscular route"}],"text":"Intramuscular route"}}},{"fullUrl":"urn:uuid:487223c6-081b-43bb-8d52-8498fc0033f3","resource":{"resourceType":"Immunization","id":"487223c6-081b-43bb-8d52-8498fc0033f3","meta":{"profile":["http://hl7.org/fhir/uv/ips/StructureDefinition/Immunization-uv-ips"]},"text":{"status":"generated","div":"<div xmlns=\"http://www.w3.org/1999/xhtml\"><a name=\"Immunization_487223c6-081b-43bb-8d52-8498fc0033f3\"> </a><table class=\"hl7__ips\"><tr><td>Live attenuated Human alphaherpesvirus 3 only vaccine product</td><td><span class=\"nb\">2017-06-14</span></td></tr></table></div>"},"status":"completed","vaccineCode":{"coding":[{"system":"http://snomed.info/sct","code":"2221000221107","display":"Live attenuated Varicella-zoster vaccine"},{"system":"http://www.whocc.no/atc","code":"J07BK02","display":"zoster, live attenuated"},{"system":"http://hl7.org/fhir/sid/cvx","code":"121","display":"zoster vaccine  live"}],"text":"Live attenuated Human alphaherpesvirus 3 only vaccine product"},"patient":{"reference":"urn:uuid:4931a6af-ff8b-4c4b-9522-eaa267d0e576","display":"Eliane Muntinga"},"occurrenceDateTime":"2017-06-14","lotNumber":"DF-cMGiRoU","expirationDate":"2018-04-09","site":{"coding":[{"system":"http://snomed.info/sct","code":"368208006","display":"Left upper arm structure"}],"text":"Left upper arm structure"},"route":{"coding":[{"system":"http://snomed.info/sct","code":"34206005","display":"Subcutaneous route"}],"text":"Subcutaneous route"}}},{"fullUrl":"urn:uuid:66e59d31-3200-4f2f-8054-176a234fd9ba","resource":{"resourceType":"AllergyIntolerance","id":"66e59d31-3200-4f2f-8054-176a234fd9ba","meta":{"profile":["http://hl7.eu/fhir/eps/StructureDefinition/allergyIntolerance-eu-eps"]},"text":{"status":"generated","div":"<div xmlns=\"http://www.w3.org/1999/xhtml\"><a name=\"AllergyIntolerance_66e59d31-3200-4f2f-8054-176a234fd9ba\"> </a><table class=\"hl7__ips\"><tr><td>No known allergies or intolerances</td></tr></table></div>"},"code":{"coding":[{"system":"http://snomed.info/sct","code":"716186003","display":"No known allergy (situation)"}]},"patient":{"reference":"urn:uuid:4931a6af-ff8b-4c4b-9522-eaa267d0e576","display":"Eliane Muntinga"},"_onsetDateTime":{"extension":[{"url":"http://hl7.org/fhir/StructureDefinition/data-absent-reason","valueCode":"unknown"}]}}},{"fullUrl":"urn:uuid:d1e2746c-4d92-44a8-8df5-0a8d3df374c0","resource":{"resourceType":"CarePlan","id":"d1e2746c-4d92-44a8-8df5-0a8d3df374c0","text":{"status":"generated","div":"<div xmlns=\"http://www.w3.org/1999/xhtml\"><a name=\"CarePlan_d1e2746c-4d92-44a8-8df5-0a8d3df374c0\"> </a><table class=\"hl7__ips\"><tr><td>Chronic obstructive pulmonary disease clinical management plan</td><td><span class=\"nb\">1995-12-27</span></td><td>Pulmonary emphysema (disorder)</td></tr></table></div>"},"status":"active","intent":"plan","category":[{"coding":[{"system":"http://terminology.hl7.org/CodeSystem/care-plan-category","code":"assess-plan","display":"Assessment and Plan"}]}],"subject":{"reference":"urn:uuid:4931a6af-ff8b-4c4b-9522-eaa267d0e576","display":"Eliane Muntinga"},"period":{"start":"1995-12-27"},"activity":[{"detail":{"kind":"appointment","code":{"coding":[{"system":"http://snomed.info/sct","code":"412776001","display":"Chronic obstructive pulmonary disease clinical management plan (qualifier value)"}]},"reasonCode":[{"coding":[{"system":"http://snomed.info/sct","code":"87433001","display":"Pulmonary emphysema (disorder)"}]}],"status":"unknown","description":"Chronic obstructive pulmonary disease clinical management plan"}}]}},{"fullUrl":"urn:uuid:29497404-7167-4e46-85fc-71c9b1a85fde","resource":{"resourceType":"CarePlan","id":"29497404-7167-4e46-85fc-71c9b1a85fde","text":{"status":"generated","div":"<div xmlns=\"http://www.w3.org/1999/xhtml\"><a name=\"CarePlan_29497404-7167-4e46-85fc-71c9b1a85fde\"> </a><table class=\"hl7__ips\"><tr><td>Diabetes self management plan</td><td><span class=\"nb\">1991-02-13</span></td><td>Prediabetes</td></tr></table></div>"},"status":"active","intent":"plan","category":[{"coding":[{"system":"http://terminology.hl7.org/CodeSystem/care-plan-category","code":"assess-plan","display":"Assessment and Plan"}]}],"subject":{"reference":"urn:uuid:4931a6af-ff8b-4c4b-9522-eaa267d0e576","display":"Eliane Muntinga"},"period":{"start":"1991-02-13"},"activity":[{"detail":{"kind":"appointment","code":{"coding":[{"system":"http://snomed.info/sct","code":"698360004","display":"Diabetes self management plan (qualifier value)"}]},"reasonCode":[{"coding":[{"system":"http://snomed.info/sct","code":"15777000","display":"Prediabetes"}]}],"status":"unknown","description":"Diabetes self management plan"}}]}},{"fullUrl":"urn:uuid:3e7da427-f97d-4cad-9278-538426bd4d13","resource":{"resourceType":"Observation","id":"3e7da427-f97d-4cad-9278-538426bd4d13","meta":{"profile":["http://hl7.org/fhir/StructureDefinition/vitalsigns"]},"text":{"status":"generated","div":"<div xmlns=\"http://www.w3.org/1999/xhtml\"><a name=\"Observation_3e7da427-f97d-4cad-9278-538426bd4d13\"> </a><table class=\"hl7__ips\"><tr><td>Body Height</td><td>172.4 cm</td></tr></table></div>"},"status":"final","category":[{"coding":[{"system":"http://terminology.hl7.org/CodeSystem/observation-category","code":"vital-signs","display":"Vital Signs"}]}],"code":{"coding":[{"system":"http://loinc.org","code":"8302-2","display":"Body Height"}]},"subject":{"reference":"urn:uuid:4931a6af-ff8b-4c4b-9522-eaa267d0e576","display":"Eliane Muntinga"},"effectiveDateTime":"2024-07-24","valueQuantity":{"value":172.4,"unit":"cm","code":"cm"}}},{"fullUrl":"urn:uuid:65bbb789-cbe8-43f8-898f-8207f75a477c","resource":{"resourceType":"Observation","id":"65bbb789-cbe8-43f8-898f-8207f75a477c","meta":{"profile":["http://hl7.org/fhir/StructureDefinition/vitalsigns"]},"text":{"status":"generated","div":"<div xmlns=\"http://www.w3.org/1999/xhtml\"><a name=\"Observation_65bbb789-cbe8-43f8-898f-8207f75a477c\"> </a><table class=\"hl7__ips\"><tr><td>Pain severity - 0-10 verbal numeric rating [Score] - Reported</td><td>0 {score}</td></tr></table></div>"},"status":"final","category":[{"coding":[{"system":"http://terminology.hl7.org/CodeSystem/observation-category","code":"vital-signs","display":"Vital Signs"}]}],"code":{"coding":[{"system":"http://loinc.org","code":"72514-3","display":"Pain severity - 0-10 verbal numeric rating [Score] - Reported"}]},"subject":{"reference":"urn:uuid:4931a6af-ff8b-4c4b-9522-eaa267d0e576","display":"Eliane Muntinga"},"effectiveDateTime":"2024-07-24","valueQuantity":{"value":0,"unit":"{score}","code":"{score}"}}},{"fullUrl":"urn:uuid:31e29c8b-db64-4d34-b78f-134a5f39ee08","resource":{"resourceType":"Observation","id":"31e29c8b-db64-4d34-b78f-134a5f39ee08","meta":{"profile":["http://hl7.org/fhir/StructureDefinition/vitalsigns"]},"text":{"status":"generated","div":"<div xmlns=\"http://www.w3.org/1999/xhtml\"><a name=\"Observation_31e29c8b-db64-4d34-b78f-134a5f39ee08\"> </a><table class=\"hl7__ips\"><tr><td>Body Weight</td><td>83.1 kg</td></tr></table></div>"},"status":"final","category":[{"coding":[{"system":"http://terminology.hl7.org/CodeSystem/observation-category","code":"vital-signs","display":"Vital Signs"}]}],"code":{"coding":[{"system":"http://loinc.org","code":"29463-7","display":"Body Weight"}]},"subject":{"reference":"urn:uuid:4931a6af-ff8b-4c4b-9522-eaa267d0e576","display":"Eliane Muntinga"},"effectiveDateTime":"2024-07-24","valueQuantity":{"value":83.1,"unit":"kg","code":"kg"}}},{"fullUrl":"urn:uuid:410bc0c1-37de-4122-8132-611cca796409","resource":{"resourceType":"Observation","id":"410bc0c1-37de-4122-8132-611cca796409","meta":{"profile":["http://hl7.org/fhir/StructureDefinition/vitalsigns"]},"text":{"status":"generated","div":"<div xmlns=\"http://www.w3.org/1999/xhtml\"><a name=\"Observation_410bc0c1-37de-4122-8132-611cca796409\"> </a><table class=\"hl7__ips\"><tr><td>Body mass index (BMI) [Ratio]</td><td>28 kg/m2</td></tr></table></div>"},"status":"final","category":[{"coding":[{"system":"http://terminology.hl7.org/CodeSystem/observation-category","code":"vital-signs","display":"Vital Signs"}]}],"code":{"coding":[{"system":"http://loinc.org","code":"39156-5","display":"Body mass index (BMI) [Ratio]"}]},"subject":{"reference":"urn:uuid:4931a6af-ff8b-4c4b-9522-eaa267d0e576","display":"Eliane Muntinga"},"effectiveDateTime":"2024-07-24","valueQuantity":{"value":28,"unit":"kg/m2","code":"kg/m2"}}},{"fullUrl":"urn:uuid:db3dfc5b-8ba2-4ea5-af2f-587d757789c6","resource":{"resourceType":"Observation","id":"db3dfc5b-8ba2-4ea5-af2f-587d757789c6","meta":{"profile":["http://hl7.org/fhir/StructureDefinition/vitalsigns"]},"text":{"status":"generated","div":"<div xmlns=\"http://www.w3.org/1999/xhtml\"><a name=\"Observation_db3dfc5b-8ba2-4ea5-af2f-587d757789c6\"> </a><table class=\"hl7__ips\"><tr><td>Diastolic Blood Pressure</td><td>81 mm[Hg]</td></tr></table></div>"},"status":"final","category":[{"coding":[{"system":"http://terminology.hl7.org/CodeSystem/observation-category","code":"vital-signs","display":"Vital Signs"}]}],"code":{"coding":[{"system":"http://loinc.org","code":"8462-4","display":"Diastolic Blood Pressure"}]},"subject":{"reference":"urn:uuid:4931a6af-ff8b-4c4b-9522-eaa267d0e576","display":"Eliane Muntinga"},"effectiveDateTime":"2024-07-24","valueQuantity":{"value":81,"unit":"mm[Hg]","code":"mm[Hg]"}}},{"fullUrl":"urn:uuid:ac45e425-a787-4cb0-a136-dfb34b8e1741","resource":{"resourceType":"Observation","id":"ac45e425-a787-4cb0-a136-dfb34b8e1741","meta":{"profile":["http://hl7.org/fhir/StructureDefinition/vitalsigns"]},"text":{"status":"generated","div":"<div xmlns=\"http://www.w3.org/1999/xhtml\"><a name=\"Observation_ac45e425-a787-4cb0-a136-dfb34b8e1741\"> </a><table class=\"hl7__ips\"><tr><td>Systolic Blood Pressure</td><td>101 mm[Hg]</td></tr></table></div>"},"status":"final","category":[{"coding":[{"system":"http://terminology.hl7.org/CodeSystem/observation-category","code":"vital-signs","display":"Vital Signs"}]}],"code":{"coding":[{"system":"http://loinc.org","code":"8480-6","display":"Systolic Blood Pressure"}]},"subject":{"reference":"urn:uuid:4931a6af-ff8b-4c4b-9522-eaa267d0e576","display":"Eliane Muntinga"},"effectiveDateTime":"2024-07-24","valueQuantity":{"value":101,"unit":"mm[Hg]","code":"mm[Hg]"}}},{"fullUrl":"urn:uuid:7bc88af6-c061-4d88-8aa2-21657f2150b3","resource":{"resourceType":"Observation","id":"7bc88af6-c061-4d88-8aa2-21657f2150b3","meta":{"profile":["http://hl7.org/fhir/StructureDefinition/vitalsigns"]},"text":{"status":"generated","div":"<div xmlns=\"http://www.w3.org/1999/xhtml\"><a name=\"Observation_7bc88af6-c061-4d88-8aa2-21657f2150b3\"> </a><table class=\"hl7__ips\"><tr><td>Heart rate</td><td>78 /min</td></tr></table></div>"},"status":"final","category":[{"coding":[{"system":"http://terminology.hl7.org/CodeSystem/observation-category","code":"vital-signs","display":"Vital Signs"}]}],"code":{"coding":[{"system":"http://loinc.org","code":"8867-4","display":"Heart rate"}]},"subject":{"reference":"urn:uuid:4931a6af-ff8b-4c4b-9522-eaa267d0e576","display":"Eliane Muntinga"},"effectiveDateTime":"2024-07-24","valueQuantity":{"value":78,"unit":"/min","code":"/min"}}},{"fullUrl":"urn:uuid:b8a486f9-da68-4879-8901-fbe07e2deb4f","resource":{"resourceType":"Observation","id":"b8a486f9-da68-4879-8901-fbe07e2deb4f","meta":{"profile":["http://hl7.org/fhir/StructureDefinition/vitalsigns"]},"text":{"status":"generated","div":"<div xmlns=\"http://www.w3.org/1999/xhtml\"><a name=\"Observation_b8a486f9-da68-4879-8901-fbe07e2deb4f\"> </a><table class=\"hl7__ips\"><tr><td>Respiratory rate</td><td>12 /min</td></tr></table></div>"},"status":"final","category":[{"coding":[{"system":"http://terminology.hl7.org/CodeSystem/observation-category","code":"vital-signs","display":"Vital Signs"}]}],"code":{"coding":[{"system":"http://loinc.org","code":"9279-1","display":"Respiratory rate"}]},"subject":{"reference":"urn:uuid:4931a6af-ff8b-4c4b-9522-eaa267d0e576","display":"Eliane Muntinga"},"effectiveDateTime":"2024-07-24","valueQuantity":{"value":12,"unit":"/min","code":"/min"}}},{"fullUrl":"urn:uuid:9b824425-63d8-4402-b4bf-46b4d0a48870","resource":{"resourceType":"Observation","id":"9b824425-63d8-4402-b4bf-46b4d0a48870","meta":{"profile":["http://hl7.org/fhir/StructureDefinition/vitalsigns"]},"text":{"status":"generated","div":"<div xmlns=\"http://www.w3.org/1999/xhtml\"><a name=\"Observation_9b824425-63d8-4402-b4bf-46b4d0a48870\"> </a><table class=\"hl7__ips\"><tr><td>Body Height</td><td>172.4 cm</td></tr></table></div>"},"status":"final","category":[{"coding":[{"system":"http://terminology.hl7.org/CodeSystem/observation-category","code":"vital-signs","display":"Vital Signs"}]}],"code":{"coding":[{"system":"http://loinc.org","code":"8302-2","display":"Body Height"}]},"subject":{"reference":"urn:uuid:4931a6af-ff8b-4c4b-9522-eaa267d0e576","display":"Eliane Muntinga"},"effectiveDateTime":"2023-07-19","valueQuantity":{"value":172.4,"unit":"cm","code":"cm"}}},{"fullUrl":"urn:uuid:e6dab0da-1b78-440c-90f4-94b29ee608e9","resource":{"resourceType":"Observation","id":"e6dab0da-1b78-440c-90f4-94b29ee608e9","meta":{"profile":["http://hl7.org/fhir/StructureDefinition/vitalsigns"]},"text":{"status":"generated","div":"<div xmlns=\"http://www.w3.org/1999/xhtml\"><a name=\"Observation_e6dab0da-1b78-440c-90f4-94b29ee608e9\"> </a><table class=\"hl7__ips\"><tr><td>Pain severity - 0-10 verbal numeric rating [Score] - Reported</td><td>3 {score}</td></tr></table></div>"},"status":"final","category":[{"coding":[{"system":"http://terminology.hl7.org/CodeSystem/observation-category","code":"vital-signs","display":"Vital Signs"}]}],"code":{"coding":[{"system":"http://loinc.org","code":"72514-3","display":"Pain severity - 0-10 verbal numeric rating [Score] - Reported"}]},"subject":{"reference":"urn:uuid:4931a6af-ff8b-4c4b-9522-eaa267d0e576","display":"Eliane Muntinga"},"effectiveDateTime":"2023-07-19","valueQuantity":{"value":3,"unit":"{score}","code":"{score}"}}},{"fullUrl":"urn:uuid:05a17f72-5b5b-4b8e-9aaa-8b1bdb6d8df7","resource":{"resourceType":"Observation","id":"05a17f72-5b5b-4b8e-9aaa-8b1bdb6d8df7","meta":{"profile":["http://hl7.org/fhir/StructureDefinition/vitalsigns"]},"text":{"status":"generated","div":"<div xmlns=\"http://www.w3.org/1999/xhtml\"><a name=\"Observation_05a17f72-5b5b-4b8e-9aaa-8b1bdb6d8df7\"> </a><table class=\"hl7__ips\"><tr><td>Body Weight</td><td>83.1 kg</td></tr></table></div>"},"status":"final","category":[{"coding":[{"system":"http://terminology.hl7.org/CodeSystem/observation-category","code":"vital-signs","display":"Vital Signs"}]}],"code":{"coding":[{"system":"http://loinc.org","code":"29463-7","display":"Body Weight"}]},"subject":{"reference":"urn:uuid:4931a6af-ff8b-4c4b-9522-eaa267d0e576","display":"Eliane Muntinga"},"effectiveDateTime":"2023-07-19","valueQuantity":{"value":83.1,"unit":"kg","code":"kg"}}},{"fullUrl":"urn:uuid:6b9d98c8-cc60-40bf-9df4-a7b2faf10981","resource":{"resourceType":"Observation","id":"6b9d98c8-cc60-40bf-9df4-a7b2faf10981","meta":{"profile":["http://hl7.org/fhir/StructureDefinition/vitalsigns"]},"text":{"status":"generated","div":"<div xmlns=\"http://www.w3.org/1999/xhtml\"><a name=\"Observation_6b9d98c8-cc60-40bf-9df4-a7b2faf10981\"> </a><table class=\"hl7__ips\"><tr><td>Body mass index (BMI) [Ratio]</td><td>28 kg/m2</td></tr></table></div>"},"status":"final","category":[{"coding":[{"system":"http://terminology.hl7.org/CodeSystem/observation-category","code":"vital-signs","display":"Vital Signs"}]}],"code":{"coding":[{"system":"http://loinc.org","code":"39156-5","display":"Body mass index (BMI) [Ratio]"}]},"subject":{"reference":"urn:uuid:4931a6af-ff8b-4c4b-9522-eaa267d0e576","display":"Eliane Muntinga"},"effectiveDateTime":"2023-07-19","valueQuantity":{"value":28,"unit":"kg/m2","code":"kg/m2"}}},{"fullUrl":"urn:uuid:1e5bb515-5203-46c7-bcbc-98b107313ec4","resource":{"resourceType":"Observation","id":"1e5bb515-5203-46c7-bcbc-98b107313ec4","meta":{"profile":["http://hl7.org/fhir/StructureDefinition/vitalsigns"]},"text":{"status":"generated","div":"<div xmlns=\"http://www.w3.org/1999/xhtml\"><a name=\"Observation_1e5bb515-5203-46c7-bcbc-98b107313ec4\"> </a><table class=\"hl7__ips\"><tr><td>Diastolic Blood Pressure</td><td>82 mm[Hg]</td></tr></table></div>"},"status":"final","category":[{"coding":[{"system":"http://terminology.hl7.org/CodeSystem/observation-category","code":"vital-signs","display":"Vital Signs"}]}],"code":{"coding":[{"system":"http://loinc.org","code":"8462-4","display":"Diastolic Blood Pressure"}]},"subject":{"reference":"urn:uuid:4931a6af-ff8b-4c4b-9522-eaa267d0e576","display":"Eliane Muntinga"},"effectiveDateTime":"2023-07-19","valueQuantity":{"value":82,"unit":"mm[Hg]","code":"mm[Hg]"}}},{"fullUrl":"urn:uuid:9487a30a-210b-42d9-b4a4-3f840c60358f","resource":{"resourceType":"Observation","id":"9487a30a-210b-42d9-b4a4-3f840c60358f","meta":{"profile":["http://hl7.org/fhir/StructureDefinition/vitalsigns"]},"text":{"status":"generated","div":"<div xmlns=\"http://www.w3.org/1999/xhtml\"><a name=\"Observation_9487a30a-210b-42d9-b4a4-3f840c60358f\"> </a><table class=\"hl7__ips\"><tr><td>Systolic Blood Pressure</td><td>112 mm[Hg]</td></tr></table></div>"},"status":"final","category":[{"coding":[{"system":"http://terminology.hl7.org/CodeSystem/observation-category","code":"vital-signs","display":"Vital Signs"}]}],"code":{"coding":[{"system":"http://loinc.org","code":"8480-6","display":"Systolic Blood Pressure"}]},"subject":{"reference":"urn:uuid:4931a6af-ff8b-4c4b-9522-eaa267d0e576","display":"Eliane Muntinga"},"effectiveDateTime":"2023-07-19","valueQuantity":{"value":112,"unit":"mm[Hg]","code":"mm[Hg]"}}},{"fullUrl":"urn:uuid:1e172283-7329-498a-b3e7-8245a0898520","resource":{"resourceType":"Observation","id":"1e172283-7329-498a-b3e7-8245a0898520","meta":{"profile":["http://hl7.org/fhir/StructureDefinition/vitalsigns"]},"text":{"status":"generated","div":"<div xmlns=\"http://www.w3.org/1999/xhtml\"><a name=\"Observation_1e172283-7329-498a-b3e7-8245a0898520\"> </a><table class=\"hl7__ips\"><tr><td>Heart rate</td><td>67 /min</td></tr></table></div>"},"status":"final","category":[{"coding":[{"system":"http://terminology.hl7.org/CodeSystem/observation-category","code":"vital-signs","display":"Vital Signs"}]}],"code":{"coding":[{"system":"http://loinc.org","code":"8867-4","display":"Heart rate"}]},"subject":{"reference":"urn:uuid:4931a6af-ff8b-4c4b-9522-eaa267d0e576","display":"Eliane Muntinga"},"effectiveDateTime":"2023-07-19","valueQuantity":{"value":67,"unit":"/min","code":"/min"}}},{"fullUrl":"urn:uuid:72c4603d-dee7-4d66-b071-5d5bdeb108dd","resource":{"resourceType":"Observation","id":"72c4603d-dee7-4d66-b071-5d5bdeb108dd","meta":{"profile":["http://hl7.org/fhir/StructureDefinition/vitalsigns"]},"text":{"status":"generated","div":"<div xmlns=\"http://www.w3.org/1999/xhtml\"><a name=\"Observation_72c4603d-dee7-4d66-b071-5d5bdeb108dd\"> </a><table class=\"hl7__ips\"><tr><td>Respiratory rate</td><td>14 /min</td></tr></table></div>"},"status":"final","category":[{"coding":[{"system":"http://terminology.hl7.org/CodeSystem/observation-category","code":"vital-signs","display":"Vital Signs"}]}],"code":{"coding":[{"system":"http://loinc.org","code":"9279-1","display":"Respiratory rate"}]},"subject":{"reference":"urn:uuid:4931a6af-ff8b-4c4b-9522-eaa267d0e576","display":"Eliane Muntinga"},"effectiveDateTime":"2023-07-19","valueQuantity":{"value":14,"unit":"/min","code":"/min"}}},{"fullUrl":"urn:uuid:91ab77ce-f661-4483-827a-ce205decb586","resource":{"resourceType":"Observation","id":"91ab77ce-f661-4483-827a-ce205decb586","meta":{"profile":["http://hl7.eu/fhir/laboratory/StructureDefinition/Observation-resultslab-eu-lab"]},"text":{"status":"generated","div":"<div xmlns=\"http://www.w3.org/1999/xhtml\"><a name=\"Observation_91ab77ce-f661-4483-827a-ce205decb586\"> </a><p class=\"res-header-id\"><b>Generated Narrative: Observation 91ab77ce-f661-4483-827a-ce205decb586</b></p><a name=\"91ab77ce-f661-4483-827a-ce205decb586\"> </a><a name=\"hc91ab77ce-f661-4483-827a-ce205decb586\"> </a><div style=\"display: inline-block; background-color: #d9e0e7; padding: 6px; margin: 4px; border: 1px solid #8da1b4; border-radius: 5px; line-height: 60%\"><p style=\"margin-bottom: 0px\"/><p style=\"margin-bottom: 0px\">Profile: <a href=\"http://hl7.eu/fhir/laboratory/0.1.1/StructureDefinition-Observation-resultslab-eu-lab.html\">Observation Results: laboratory</a></p></div><p><b>status</b>: Final</p><p><b>category</b>: <span title=\"Codes:{http://terminology.hl7.org/CodeSystem/observation-category laboratory}\">Laboratory</span></p><p><b>code</b>: <span title=\"Codes:{http://loinc.org 4548-4}\">Hemoglobin A1c/Hemoglobin.total in Blood</span></p><p><b>subject</b>: <a href=\"Bundle-Instance-Bundle-ee907eee-c157-4c57-8de3-b13d6487a703.html#urn-uuid-4931a6af-ff8b-4c4b-9522-eaa267d0e576\">Eliane Muntinga Female, DoB: 1969-02-25 ( Jurisdictional health number)</a></p><p><b>effective</b>: 2024-07-24</p><p><b>performer</b>: The Central European Lab</p><p><b>value</b>: 6.3 %<span style=\"background: LightGoldenRodYellow\"> (Details: UCUM  code4548-4 = '4548-4')</span></p><p><b>interpretation</b>: <span title=\"Codes:{http://terminology.hl7.org/CodeSystem/v3-ObservationInterpretation H}\">High</span></p><h3>ReferenceRanges</h3><table class=\"grid\"><tr><td style=\"display: none\">-</td><td><b>Low</b></td><td><b>High</b></td></tr><tr><td style=\"display: none\">*</td><td>4.8 %<span style=\"background: LightGoldenRodYellow\"> (Details: UCUM  code% = '%')</span></td><td> </td></tr><tr><td style=\"display: none\">*</td><td> </td><td>5.7 %<span style=\"background: LightGoldenRodYellow\"> (Details: UCUM  code% = '%')</span></td></tr></table></div>"},"status":"final","category":[{"coding":[{"system":"http://terminology.hl7.org/CodeSystem/observation-category","code":"laboratory"}]}],"code":{"coding":[{"system":"http://loinc.org","code":"4548-4","display":"Hemoglobin A1c/Hemoglobin.total in Blood"}],"text":"Hemoglobin A1c/Hemoglobin.total in Blood"},"subject":{"reference":"urn:uuid:4931a6af-ff8b-4c4b-9522-eaa267d0e576"},"effectiveDateTime":"2024-07-24","performer":[{"display":"The Central European Lab"}],"valueQuantity":{"value":6.3,"unit":"%","system":"http://unitsofmeasure.org","code":"4548-4"},"interpretation":[{"coding":[{"system":"http://terminology.hl7.org/CodeSystem/v3-ObservationInterpretation","code":"H","display":"High"}]}],"referenceRange":[{"low":{"value":4.8,"system":"http://unitsofmeasure.org","code":"%"}},{"high":{"value":5.7,"system":"http://unitsofmeasure.org","code":"%"}}]}},{"fullUrl":"urn:uuid:c6aeeaa5-9636-4777-afee-3ffba17a4322","resource":{"resourceType":"Observation","id":"c6aeeaa5-9636-4777-afee-3ffba17a4322","meta":{"profile":["http://hl7.eu/fhir/laboratory/StructureDefinition/Observation-resultslab-eu-lab"]},"text":{"status":"generated","div":"<div xmlns=\"http://www.w3.org/1999/xhtml\"><a name=\"Observation_c6aeeaa5-9636-4777-afee-3ffba17a4322\"> </a><p class=\"res-header-id\"><b>Generated Narrative: Observation c6aeeaa5-9636-4777-afee-3ffba17a4322</b></p><a name=\"c6aeeaa5-9636-4777-afee-3ffba17a4322\"> </a><a name=\"hcc6aeeaa5-9636-4777-afee-3ffba17a4322\"> </a><div style=\"display: inline-block; background-color: #d9e0e7; padding: 6px; margin: 4px; border: 1px solid #8da1b4; border-radius: 5px; line-height: 60%\"><p style=\"margin-bottom: 0px\"/><p style=\"margin-bottom: 0px\">Profile: <a href=\"http://hl7.eu/fhir/laboratory/0.1.1/StructureDefinition-Observation-resultslab-eu-lab.html\">Observation Results: laboratory</a></p></div><p><b>status</b>: Final</p><p><b>category</b>: <span title=\"Codes:{http://terminology.hl7.org/CodeSystem/observation-category laboratory}\">Laboratory</span></p><p><b>code</b>: <span title=\"Codes:{http://loinc.org 2339-0}\">Glucose [Mass/volume] in Blood</span></p><p><b>subject</b>: <a href=\"Bundle-Instance-Bundle-ee907eee-c157-4c57-8de3-b13d6487a703.html#urn-uuid-4931a6af-ff8b-4c4b-9522-eaa267d0e576\">Eliane Muntinga Female, DoB: 1969-02-25 ( Jurisdictional health number)</a></p><p><b>effective</b>: 2024-07-24</p><p><b>performer</b>: The Central European Lab</p><p><b>value</b>: 81.8 mg/dL<span style=\"background: LightGoldenRodYellow\"> (Details: UCUM  code2339-0 = '2339-0')</span></p><h3>ReferenceRanges</h3><table class=\"grid\"><tr><td style=\"display: none\">-</td><td><b>Low</b></td><td><b>High</b></td></tr><tr><td style=\"display: none\">*</td><td>70 mg/dL<span style=\"background: LightGoldenRodYellow\"> (Details: UCUM  codemg/dL = 'mg/dL')</span></td><td> </td></tr><tr><td style=\"display: none\">*</td><td> </td><td>99 mg/dL<span style=\"background: LightGoldenRodYellow\"> (Details: UCUM  codemg/dL = 'mg/dL')</span></td></tr></table></div>"},"status":"final","category":[{"coding":[{"system":"http://terminology.hl7.org/CodeSystem/observation-category","code":"laboratory"}]}],"code":{"coding":[{"system":"http://loinc.org","code":"2339-0","display":"Glucose [Mass/volume] in Blood"}],"text":"Glucose [Mass/volume] in Blood"},"subject":{"reference":"urn:uuid:4931a6af-ff8b-4c4b-9522-eaa267d0e576"},"effectiveDateTime":"2024-07-24","performer":[{"display":"The Central European Lab"}],"valueQuantity":{"value":81.8,"unit":"mg/dL","system":"http://unitsofmeasure.org","code":"2339-0"},"referenceRange":[{"low":{"value":70,"system":"http://unitsofmeasure.org","code":"mg/dL"}},{"high":{"value":99,"system":"http://unitsofmeasure.org","code":"mg/dL"}}]}},{"fullUrl":"urn:uuid:ae67261c-ef10-481e-b7ee-0b8f5c9c8095","resource":{"resourceType":"Observation","id":"ae67261c-ef10-481e-b7ee-0b8f5c9c8095","meta":{"profile":["http://hl7.eu/fhir/laboratory/StructureDefinition/Observation-resultslab-eu-lab"]},"text":{"status":"generated","div":"<div xmlns=\"http://www.w3.org/1999/xhtml\"><a name=\"Observation_ae67261c-ef10-481e-b7ee-0b8f5c9c8095\"> </a><p class=\"res-header-id\"><b>Generated Narrative: Observation ae67261c-ef10-481e-b7ee-0b8f5c9c8095</b></p><a name=\"ae67261c-ef10-481e-b7ee-0b8f5c9c8095\"> </a><a name=\"hcae67261c-ef10-481e-b7ee-0b8f5c9c8095\"> </a><div style=\"display: inline-block; background-color: #d9e0e7; padding: 6px; margin: 4px; border: 1px solid #8da1b4; border-radius: 5px; line-height: 60%\"><p style=\"margin-bottom: 0px\"/><p style=\"margin-bottom: 0px\">Profile: <a href=\"http://hl7.eu/fhir/laboratory/0.1.1/StructureDefinition-Observation-resultslab-eu-lab.html\">Observation Results: laboratory</a></p></div><p><b>status</b>: Final</p><p><b>category</b>: <span title=\"Codes:{http://terminology.hl7.org/CodeSystem/observation-category laboratory}\">Laboratory</span></p><p><b>code</b>: <span title=\"Codes:{http://loinc.org 6299-2}\">Urea nitrogen [Mass/volume] in Blood</span></p><p><b>subject</b>: <a href=\"Bundle-Instance-Bundle-ee907eee-c157-4c57-8de3-b13d6487a703.html#urn-uuid-4931a6af-ff8b-4c4b-9522-eaa267d0e576\">Eliane Muntinga Female, DoB: 1969-02-25 ( Jurisdictional health number)</a></p><p><b>effective</b>: 2024-07-24</p><p><b>performer</b>: The Central European Lab</p><p><b>value</b>: 16.4 mg/dL<span style=\"background: LightGoldenRodYellow\"> (Details: UCUM  code6299-2 = '6299-2')</span></p><h3>ReferenceRanges</h3><table class=\"grid\"><tr><td style=\"display: none\">-</td><td><b>Low</b></td><td><b>High</b></td></tr><tr><td style=\"display: none\">*</td><td>7 mg/dL<span style=\"background: LightGoldenRodYellow\"> (Details: UCUM  codemg/dL = 'mg/dL')</span></td><td> </td></tr><tr><td style=\"display: none\">*</td><td> </td><td>25 mg/dL<span style=\"background: LightGoldenRodYellow\"> (Details: UCUM  codemg/dL = 'mg/dL')</span></td></tr></table></div>"},"status":"final","category":[{"coding":[{"system":"http://terminology.hl7.org/CodeSystem/observation-category","code":"laboratory"}]}],"code":{"coding":[{"system":"http://loinc.org","code":"6299-2","display":"Urea nitrogen [Mass/volume] in Blood"}],"text":"Urea nitrogen [Mass/volume] in Blood"},"subject":{"reference":"urn:uuid:4931a6af-ff8b-4c4b-9522-eaa267d0e576"},"effectiveDateTime":"2024-07-24","performer":[{"display":"The Central European Lab"}],"valueQuantity":{"value":16.4,"unit":"mg/dL","system":"http://unitsofmeasure.org","code":"6299-2"},"referenceRange":[{"low":{"value":7,"system":"http://unitsofmeasure.org","code":"mg/dL"}},{"high":{"value":25,"system":"http://unitsofmeasure.org","code":"mg/dL"}}]}},{"fullUrl":"urn:uuid:a26549a1-18da-4ee0-9bcd-f9e4dd808ead","resource":{"resourceType":"Observation","id":"a26549a1-18da-4ee0-9bcd-f9e4dd808ead","meta":{"profile":["http://hl7.eu/fhir/laboratory/StructureDefinition/Observation-resultslab-eu-lab"]},"text":{"status":"generated","div":"<div xmlns=\"http://www.w3.org/1999/xhtml\"><a name=\"Observation_a26549a1-18da-4ee0-9bcd-f9e4dd808ead\"> </a><p class=\"res-header-id\"><b>Generated Narrative: Observation a26549a1-18da-4ee0-9bcd-f9e4dd808ead</b></p><a name=\"a26549a1-18da-4ee0-9bcd-f9e4dd808ead\"> </a><a name=\"hca26549a1-18da-4ee0-9bcd-f9e4dd808ead\"> </a><div style=\"display: inline-block; background-color: #d9e0e7; padding: 6px; margin: 4px; border: 1px solid #8da1b4; border-radius: 5px; line-height: 60%\"><p style=\"margin-bottom: 0px\"/><p style=\"margin-bottom: 0px\">Profile: <a href=\"http://hl7.eu/fhir/laboratory/0.1.1/StructureDefinition-Observation-resultslab-eu-lab.html\">Observation Results: laboratory</a></p></div><p><b>status</b>: Final</p><p><b>category</b>: <span title=\"Codes:{http://terminology.hl7.org/CodeSystem/observation-category laboratory}\">Laboratory</span></p><p><b>code</b>: <span title=\"Codes:{http://loinc.org 38483-4}\">Creatinine [Mass/volume] in Blood</span></p><p><b>subject</b>: <a href=\"Bundle-Instance-Bundle-ee907eee-c157-4c57-8de3-b13d6487a703.html#urn-uuid-4931a6af-ff8b-4c4b-9522-eaa267d0e576\">Eliane Muntinga Female, DoB: 1969-02-25 ( Jurisdictional health number)</a></p><p><b>effective</b>: 2024-07-24</p><p><b>performer</b>: The Central European Lab</p><p><b>value</b>: 0.8 mg/dL<span style=\"background: LightGoldenRodYellow\"> (Details: UCUM  code38483-4 = '38483-4')</span></p><h3>ReferenceRanges</h3><table class=\"grid\"><tr><td style=\"display: none\">-</td><td><b>Low</b></td><td><b>High</b></td></tr><tr><td style=\"display: none\">*</td><td>0.6 mg/dL<span style=\"background: LightGoldenRodYellow\"> (Details: UCUM  codemg/dL = 'mg/dL')</span></td><td> </td></tr><tr><td style=\"display: none\">*</td><td> </td><td>1.1 mg/dL<span style=\"background: LightGoldenRodYellow\"> (Details: UCUM  codemg/dL = 'mg/dL')</span></td></tr></table></div>"},"status":"final","category":[{"coding":[{"system":"http://terminology.hl7.org/CodeSystem/observation-category","code":"laboratory"}]}],"code":{"coding":[{"system":"http://loinc.org","code":"38483-4","display":"Creatinine [Mass/volume] in Blood"}],"text":"Creatinine [Mass/volume] in Blood"},"subject":{"reference":"urn:uuid:4931a6af-ff8b-4c4b-9522-eaa267d0e576"},"effectiveDateTime":"2024-07-24","performer":[{"display":"The Central European Lab"}],"valueQuantity":{"value":0.8,"unit":"mg/dL","system":"http://unitsofmeasure.org","code":"38483-4"},"referenceRange":[{"low":{"value":0.6,"system":"http://unitsofmeasure.org","code":"mg/dL"}},{"high":{"value":1.1,"system":"http://unitsofmeasure.org","code":"mg/dL"}}]}},{"fullUrl":"urn:uuid:f20f3bc6-7d78-4a82-8268-5caa4392e93e","resource":{"resourceType":"Observation","id":"f20f3bc6-7d78-4a82-8268-5caa4392e93e","meta":{"profile":["http://hl7.eu/fhir/laboratory/StructureDefinition/Observation-resultslab-eu-lab"]},"text":{"status":"generated","div":"<div xmlns=\"http://www.w3.org/1999/xhtml\"><a name=\"Observation_f20f3bc6-7d78-4a82-8268-5caa4392e93e\"> </a><p class=\"res-header-id\"><b>Generated Narrative: Observation f20f3bc6-7d78-4a82-8268-5caa4392e93e</b></p><a name=\"f20f3bc6-7d78-4a82-8268-5caa4392e93e\"> </a><a name=\"hcf20f3bc6-7d78-4a82-8268-5caa4392e93e\"> </a><div style=\"display: inline-block; background-color: #d9e0e7; padding: 6px; margin: 4px; border: 1px solid #8da1b4; border-radius: 5px; line-height: 60%\"><p style=\"margin-bottom: 0px\"/><p style=\"margin-bottom: 0px\">Profile: <a href=\"http://hl7.eu/fhir/laboratory/0.1.1/StructureDefinition-Observation-resultslab-eu-lab.html\">Observation Results: laboratory</a></p></div><p><b>status</b>: Final</p><p><b>category</b>: <span title=\"Codes:{http://terminology.hl7.org/CodeSystem/observation-category laboratory}\">Laboratory</span></p><p><b>code</b>: <span title=\"Codes:{http://loinc.org 49765-1}\">Calcium [Mass/volume] in Blood</span></p><p><b>subject</b>: <a href=\"Bundle-Instance-Bundle-ee907eee-c157-4c57-8de3-b13d6487a703.html#urn-uuid-4931a6af-ff8b-4c4b-9522-eaa267d0e576\">Eliane Muntinga Female, DoB: 1969-02-25 ( Jurisdictional health number)</a></p><p><b>effective</b>: 2024-07-24</p><p><b>performer</b>: The Central European Lab</p><p><b>value</b>: 9 mg/dL<span style=\"background: LightGoldenRodYellow\"> (Details: UCUM  code49765-1 = '49765-1')</span></p><h3>ReferenceRanges</h3><table class=\"grid\"><tr><td style=\"display: none\">-</td><td><b>Low</b></td><td><b>High</b></td></tr><tr><td style=\"display: none\">*</td><td>8.5 mg/dL<span style=\"background: LightGoldenRodYellow\"> (Details: UCUM  codemg/dL = 'mg/dL')</span></td><td> </td></tr><tr><td style=\"display: none\">*</td><td> </td><td>10.5 mg/dL<span style=\"background: LightGoldenRodYellow\"> (Details: UCUM  codemg/dL = 'mg/dL')</span></td></tr></table></div>"},"status":"final","category":[{"coding":[{"system":"http://terminology.hl7.org/CodeSystem/observation-category","code":"laboratory"}]}],"code":{"coding":[{"system":"http://loinc.org","code":"49765-1","display":"Calcium [Mass/volume] in Blood"}],"text":"Calcium [Mass/volume] in Blood"},"subject":{"reference":"urn:uuid:4931a6af-ff8b-4c4b-9522-eaa267d0e576"},"effectiveDateTime":"2024-07-24","performer":[{"display":"The Central European Lab"}],"valueQuantity":{"value":9,"unit":"mg/dL","system":"http://unitsofmeasure.org","code":"49765-1"},"referenceRange":[{"low":{"value":8.5,"system":"http://unitsofmeasure.org","code":"mg/dL"}},{"high":{"value":10.5,"system":"http://unitsofmeasure.org","code":"mg/dL"}}]}},{"fullUrl":"urn:uuid:61063a8f-4c1c-4f70-9d40-7cc30938ce5f","resource":{"resourceType":"Observation","id":"61063a8f-4c1c-4f70-9d40-7cc30938ce5f","meta":{"profile":["http://hl7.eu/fhir/laboratory/StructureDefinition/Observation-resultslab-eu-lab"]},"text":{"status":"generated","div":"<div xmlns=\"http://www.w3.org/1999/xhtml\"><a name=\"Observation_61063a8f-4c1c-4f70-9d40-7cc30938ce5f\"> </a><p class=\"res-header-id\"><b>Generated Narrative: Observation 61063a8f-4c1c-4f70-9d40-7cc30938ce5f</b></p><a name=\"61063a8f-4c1c-4f70-9d40-7cc30938ce5f\"> </a><a name=\"hc61063a8f-4c1c-4f70-9d40-7cc30938ce5f\"> </a><div style=\"display: inline-block; background-color: #d9e0e7; padding: 6px; margin: 4px; border: 1px solid #8da1b4; border-radius: 5px; line-height: 60%\"><p style=\"margin-bottom: 0px\"/><p style=\"margin-bottom: 0px\">Profile: <a href=\"http://hl7.eu/fhir/laboratory/0.1.1/StructureDefinition-Observation-resultslab-eu-lab.html\">Observation Results: laboratory</a></p></div><p><b>status</b>: Final</p><p><b>category</b>: <span title=\"Codes:{http://terminology.hl7.org/CodeSystem/observation-category laboratory}\">Laboratory</span></p><p><b>code</b>: <span title=\"Codes:{http://loinc.org 2947-0}\">Sodium [Moles/volume] in Blood</span></p><p><b>subject</b>: <a href=\"Bundle-Instance-Bundle-ee907eee-c157-4c57-8de3-b13d6487a703.html#urn-uuid-4931a6af-ff8b-4c4b-9522-eaa267d0e576\">Eliane Muntinga Female, DoB: 1969-02-25 ( Jurisdictional health number)</a></p><p><b>effective</b>: 2024-07-24</p><p><b>performer</b>: The Central European Lab</p><p><b>value</b>: 138.8 mmol/L<span style=\"background: LightGoldenRodYellow\"> (Details: UCUM  code2947-0 = '2947-0')</span></p><h3>ReferenceRanges</h3><table class=\"grid\"><tr><td style=\"display: none\">-</td><td><b>Low</b></td><td><b>High</b></td></tr><tr><td style=\"display: none\">*</td><td>135 mmol/L<span style=\"background: LightGoldenRodYellow\"> (Details: UCUM  codemmol/L = 'mmol/L')</span></td><td> </td></tr><tr><td style=\"display: none\">*</td><td> </td><td>145 mmol/L<span style=\"background: LightGoldenRodYellow\"> (Details: UCUM  codemmol/L = 'mmol/L')</span></td></tr></table></div>"},"status":"final","category":[{"coding":[{"system":"http://terminology.hl7.org/CodeSystem/observation-category","code":"laboratory"}]}],"code":{"coding":[{"system":"http://loinc.org","code":"2947-0","display":"Sodium [Moles/volume] in Blood"}],"text":"Sodium [Moles/volume] in Blood"},"subject":{"reference":"urn:uuid:4931a6af-ff8b-4c4b-9522-eaa267d0e576"},"effectiveDateTime":"2024-07-24","performer":[{"display":"The Central European Lab"}],"valueQuantity":{"value":138.8,"unit":"mmol/L","system":"http://unitsofmeasure.org","code":"2947-0"},"referenceRange":[{"low":{"value":135,"system":"http://unitsofmeasure.org","code":"mmol/L"}},{"high":{"value":145,"system":"http://unitsofmeasure.org","code":"mmol/L"}}]}},{"fullUrl":"urn:uuid:78661e59-9736-4ae5-9498-b4a14505cfce","resource":{"resourceType":"Observation","id":"78661e59-9736-4ae5-9498-b4a14505cfce","meta":{"profile":["http://hl7.eu/fhir/laboratory/StructureDefinition/Observation-resultslab-eu-lab"]},"text":{"status":"generated","div":"<div xmlns=\"http://www.w3.org/1999/xhtml\"><a name=\"Observation_78661e59-9736-4ae5-9498-b4a14505cfce\"> </a><p class=\"res-header-id\"><b>Generated Narrative: Observation 78661e59-9736-4ae5-9498-b4a14505cfce</b></p><a name=\"78661e59-9736-4ae5-9498-b4a14505cfce\"> </a><a name=\"hc78661e59-9736-4ae5-9498-b4a14505cfce\"> </a><div style=\"display: inline-block; background-color: #d9e0e7; padding: 6px; margin: 4px; border: 1px solid #8da1b4; border-radius: 5px; line-height: 60%\"><p style=\"margin-bottom: 0px\"/><p style=\"margin-bottom: 0px\">Profile: <a href=\"http://hl7.eu/fhir/laboratory/0.1.1/StructureDefinition-Observation-resultslab-eu-lab.html\">Observation Results: laboratory</a></p></div><p><b>status</b>: Final</p><p><b>category</b>: <span title=\"Codes:{http://terminology.hl7.org/CodeSystem/observation-category laboratory}\">Laboratory</span></p><p><b>code</b>: <span title=\"Codes:{http://loinc.org 6298-4}\">Potassium [Moles/volume] in Blood</span></p><p><b>subject</b>: <a href=\"Bundle-Instance-Bundle-ee907eee-c157-4c57-8de3-b13d6487a703.html#urn-uuid-4931a6af-ff8b-4c4b-9522-eaa267d0e576\">Eliane Muntinga Female, DoB: 1969-02-25 ( Jurisdictional health number)</a></p><p><b>effective</b>: 2024-07-24</p><p><b>performer</b>: The Central European Lab</p><p><b>value</b>: 5.1 mmol/L<span style=\"background: LightGoldenRodYellow\"> (Details: UCUM  code6298-4 = '6298-4')</span></p><h3>ReferenceRanges</h3><table class=\"grid\"><tr><td style=\"display: none\">-</td><td><b>Low</b></td><td><b>High</b></td></tr><tr><td style=\"display: none\">*</td><td>3.5 mmol/L<span style=\"background: LightGoldenRodYellow\"> (Details: UCUM  codemmol/L = 'mmol/L')</span></td><td> </td></tr><tr><td style=\"display: none\">*</td><td> </td><td>5.3 mmol/L<span style=\"background: LightGoldenRodYellow\"> (Details: UCUM  codemmol/L = 'mmol/L')</span></td></tr></table></div>"},"status":"final","category":[{"coding":[{"system":"http://terminology.hl7.org/CodeSystem/observation-category","code":"laboratory"}]}],"code":{"coding":[{"system":"http://loinc.org","code":"6298-4","display":"Potassium [Moles/volume] in Blood"}],"text":"Potassium [Moles/volume] in Blood"},"subject":{"reference":"urn:uuid:4931a6af-ff8b-4c4b-9522-eaa267d0e576"},"effectiveDateTime":"2024-07-24","performer":[{"display":"The Central European Lab"}],"valueQuantity":{"value":5.1,"unit":"mmol/L","system":"http://unitsofmeasure.org","code":"6298-4"},"referenceRange":[{"low":{"value":3.5,"system":"http://unitsofmeasure.org","code":"mmol/L"}},{"high":{"value":5.3,"system":"http://unitsofmeasure.org","code":"mmol/L"}}]}},{"fullUrl":"urn:uuid:0b04263c-25bb-44b3-87ce-dedf0036796e","resource":{"resourceType":"Observation","id":"0b04263c-25bb-44b3-87ce-dedf0036796e","meta":{"profile":["http://hl7.eu/fhir/laboratory/StructureDefinition/Observation-resultslab-eu-lab"]},"text":{"status":"generated","div":"<div xmlns=\"http://www.w3.org/1999/xhtml\"><a name=\"Observation_0b04263c-25bb-44b3-87ce-dedf0036796e\"> </a><p class=\"res-header-id\"><b>Generated Narrative: Observation 0b04263c-25bb-44b3-87ce-dedf0036796e</b></p><a name=\"0b04263c-25bb-44b3-87ce-dedf0036796e\"> </a><a name=\"hc0b04263c-25bb-44b3-87ce-dedf0036796e\"> </a><div style=\"display: inline-block; background-color: #d9e0e7; padding: 6px; margin: 4px; border: 1px solid #8da1b4; border-radius: 5px; line-height: 60%\"><p style=\"margin-bottom: 0px\"/><p style=\"margin-bottom: 0px\">Profile: <a href=\"http://hl7.eu/fhir/laboratory/0.1.1/StructureDefinition-Observation-resultslab-eu-lab.html\">Observation Results: laboratory</a></p></div><p><b>status</b>: Final</p><p><b>category</b>: <span title=\"Codes:{http://terminology.hl7.org/CodeSystem/observation-category laboratory}\">Laboratory</span></p><p><b>code</b>: <span title=\"Codes:{http://loinc.org 2069-3}\">Chloride [Moles/volume] in Blood</span></p><p><b>subject</b>: <a href=\"Bundle-Instance-Bundle-ee907eee-c157-4c57-8de3-b13d6487a703.html#urn-uuid-4931a6af-ff8b-4c4b-9522-eaa267d0e576\">Eliane Muntinga Female, DoB: 1969-02-25 ( Jurisdictional health number)</a></p><p><b>effective</b>: 2024-07-24</p><p><b>performer</b>: The Central European Lab</p><p><b>value</b>: 104.9 mmol/L<span style=\"background: LightGoldenRodYellow\"> (Details: UCUM  code2069-3 = '2069-3')</span></p><h3>ReferenceRanges</h3><table class=\"grid\"><tr><td style=\"display: none\">-</td><td><b>Low</b></td><td><b>High</b></td></tr><tr><td style=\"display: none\">*</td><td>98 mmol/L<span style=\"background: LightGoldenRodYellow\"> (Details: UCUM  codemmol/L = 'mmol/L')</span></td><td> </td></tr><tr><td style=\"display: none\">*</td><td> </td><td>107 mmol/L<span style=\"background: LightGoldenRodYellow\"> (Details: UCUM  codemmol/L = 'mmol/L')</span></td></tr></table></div>"},"status":"final","category":[{"coding":[{"system":"http://terminology.hl7.org/CodeSystem/observation-category","code":"laboratory"}]}],"code":{"coding":[{"system":"http://loinc.org","code":"2069-3","display":"Chloride [Moles/volume] in Blood"}],"text":"Chloride [Moles/volume] in Blood"},"subject":{"reference":"urn:uuid:4931a6af-ff8b-4c4b-9522-eaa267d0e576"},"effectiveDateTime":"2024-07-24","performer":[{"display":"The Central European Lab"}],"valueQuantity":{"value":104.9,"unit":"mmol/L","system":"http://unitsofmeasure.org","code":"2069-3"},"referenceRange":[{"low":{"value":98,"system":"http://unitsofmeasure.org","code":"mmol/L"}},{"high":{"value":107,"system":"http://unitsofmeasure.org","code":"mmol/L"}}]}},{"fullUrl":"urn:uuid:19fca8b6-7c12-4305-b692-7798fac8f9a0","resource":{"resourceType":"Observation","id":"19fca8b6-7c12-4305-b692-7798fac8f9a0","meta":{"profile":["http://hl7.eu/fhir/laboratory/StructureDefinition/Observation-resultslab-eu-lab"]},"text":{"status":"generated","div":"<div xmlns=\"http://www.w3.org/1999/xhtml\"><a name=\"Observation_19fca8b6-7c12-4305-b692-7798fac8f9a0\"> </a><p class=\"res-header-id\"><b>Generated Narrative: Observation 19fca8b6-7c12-4305-b692-7798fac8f9a0</b></p><a name=\"19fca8b6-7c12-4305-b692-7798fac8f9a0\"> </a><a name=\"hc19fca8b6-7c12-4305-b692-7798fac8f9a0\"> </a><div style=\"display: inline-block; background-color: #d9e0e7; padding: 6px; margin: 4px; border: 1px solid #8da1b4; border-radius: 5px; line-height: 60%\"><p style=\"margin-bottom: 0px\"/><p style=\"margin-bottom: 0px\">Profile: <a href=\"http://hl7.eu/fhir/laboratory/0.1.1/StructureDefinition-Observation-resultslab-eu-lab.html\">Observation Results: laboratory</a></p></div><p><b>status</b>: Final</p><p><b>category</b>: <span title=\"Codes:{http://terminology.hl7.org/CodeSystem/observation-category laboratory}\">Laboratory</span></p><p><b>code</b>: <span title=\"Codes:{http://loinc.org 20565-8}\">Carbon dioxide, total [Moles/volume] in Blood</span></p><p><b>subject</b>: <a href=\"Bundle-Instance-Bundle-ee907eee-c157-4c57-8de3-b13d6487a703.html#urn-uuid-4931a6af-ff8b-4c4b-9522-eaa267d0e576\">Eliane Muntinga Female, DoB: 1969-02-25 ( Jurisdictional health number)</a></p><p><b>effective</b>: 2024-07-24</p><p><b>performer</b>: The Central European Lab</p><p><b>value</b>: 24.9 mmol/L<span style=\"background: LightGoldenRodYellow\"> (Details: UCUM  code20565-8 = '20565-8')</span></p><h3>ReferenceRanges</h3><table class=\"grid\"><tr><td style=\"display: none\">-</td><td><b>Low</b></td><td><b>High</b></td></tr><tr><td style=\"display: none\">*</td><td>22 mmol/L<span style=\"background: LightGoldenRodYellow\"> (Details: UCUM  codemmol/L = 'mmol/L')</span></td><td> </td></tr><tr><td style=\"display: none\">*</td><td> </td><td>32 mmol/L<span style=\"background: LightGoldenRodYellow\"> (Details: UCUM  codemmol/L = 'mmol/L')</span></td></tr></table></div>"},"status":"final","category":[{"coding":[{"system":"http://terminology.hl7.org/CodeSystem/observation-category","code":"laboratory"}]}],"code":{"coding":[{"system":"http://loinc.org","code":"20565-8","display":"Carbon dioxide, total [Moles/volume] in Blood"}],"text":"Carbon dioxide, total [Moles/volume] in Blood"},"subject":{"reference":"urn:uuid:4931a6af-ff8b-4c4b-9522-eaa267d0e576"},"effectiveDateTime":"2024-07-24","performer":[{"display":"The Central European Lab"}],"valueQuantity":{"value":24.9,"unit":"mmol/L","system":"http://unitsofmeasure.org","code":"20565-8"},"referenceRange":[{"low":{"value":22,"system":"http://unitsofmeasure.org","code":"mmol/L"}},{"high":{"value":32,"system":"http://unitsofmeasure.org","code":"mmol/L"}}]}},{"fullUrl":"urn:uuid:b32998b2-9674-4d87-bfc8-d4da7e13756c","resource":{"resourceType":"Observation","id":"b32998b2-9674-4d87-bfc8-d4da7e13756c","meta":{"profile":["http://hl7.eu/fhir/laboratory/StructureDefinition/Observation-resultslab-eu-lab"]},"text":{"status":"generated","div":"<div xmlns=\"http://www.w3.org/1999/xhtml\"><a name=\"Observation_b32998b2-9674-4d87-bfc8-d4da7e13756c\"> </a><p class=\"res-header-id\"><b>Generated Narrative: Observation b32998b2-9674-4d87-bfc8-d4da7e13756c</b></p><a name=\"b32998b2-9674-4d87-bfc8-d4da7e13756c\"> </a><a name=\"hcb32998b2-9674-4d87-bfc8-d4da7e13756c\"> </a><div style=\"display: inline-block; background-color: #d9e0e7; padding: 6px; margin: 4px; border: 1px solid #8da1b4; border-radius: 5px; line-height: 60%\"><p style=\"margin-bottom: 0px\"/><p style=\"margin-bottom: 0px\">Profile: <a href=\"http://hl7.eu/fhir/laboratory/0.1.1/StructureDefinition-Observation-resultslab-eu-lab.html\">Observation Results: laboratory</a></p></div><p><b>status</b>: Final</p><p><b>category</b>: <span title=\"Codes:{http://terminology.hl7.org/CodeSystem/observation-category laboratory}\">Laboratory</span></p><p><b>code</b>: <span title=\"Codes:{http://loinc.org 6690-2}\">Leukocytes [#/volume] in Blood by Automated count</span></p><p><b>subject</b>: <a href=\"Bundle-Instance-Bundle-ee907eee-c157-4c57-8de3-b13d6487a703.html#urn-uuid-4931a6af-ff8b-4c4b-9522-eaa267d0e576\">Eliane Muntinga Female, DoB: 1969-02-25 ( Jurisdictional health number)</a></p><p><b>effective</b>: 2024-07-24</p><p><b>performer</b>: The Central European Lab</p><p><b>value</b>: 8.6 10*3/uL<span style=\"background: LightGoldenRodYellow\"> (Details: UCUM  code6690-2 = '6690-2')</span></p><h3>ReferenceRanges</h3><table class=\"grid\"><tr><td style=\"display: none\">-</td><td><b>Low</b></td><td><b>High</b></td></tr><tr><td style=\"display: none\">*</td><td>3.4 10*3/uL<span style=\"background: LightGoldenRodYellow\"> (Details: UCUM  code10*3/uL = '10*3/uL')</span></td><td> </td></tr><tr><td style=\"display: none\">*</td><td> </td><td>10.5 10*3/uL<span style=\"background: LightGoldenRodYellow\"> (Details: UCUM  code10*3/uL = '10*3/uL')</span></td></tr></table></div>"},"status":"final","category":[{"coding":[{"system":"http://terminology.hl7.org/CodeSystem/observation-category","code":"laboratory"}]}],"code":{"coding":[{"system":"http://loinc.org","code":"6690-2","display":"Leukocytes [#/volume] in Blood by Automated count"}],"text":"Leukocytes [#/volume] in Blood by Automated count"},"subject":{"reference":"urn:uuid:4931a6af-ff8b-4c4b-9522-eaa267d0e576"},"effectiveDateTime":"2024-07-24","performer":[{"display":"The Central European Lab"}],"valueQuantity":{"value":8.6,"unit":"10*3/uL","system":"http://unitsofmeasure.org","code":"6690-2"},"referenceRange":[{"low":{"value":3.4,"system":"http://unitsofmeasure.org","code":"10*3/uL"}},{"high":{"value":10.5,"system":"http://unitsofmeasure.org","code":"10*3/uL"}}]}},{"fullUrl":"urn:uuid:e1f8c3b5-7f6c-4fd9-bc64-0cd582e39544","resource":{"resourceType":"Observation","id":"e1f8c3b5-7f6c-4fd9-bc64-0cd582e39544","meta":{"profile":["http://hl7.eu/fhir/laboratory/StructureDefinition/Observation-resultslab-eu-lab"]},"text":{"status":"generated","div":"<div xmlns=\"http://www.w3.org/1999/xhtml\"><a name=\"Observation_e1f8c3b5-7f6c-4fd9-bc64-0cd582e39544\"> </a><p class=\"res-header-id\"><b>Generated Narrative: Observation e1f8c3b5-7f6c-4fd9-bc64-0cd582e39544</b></p><a name=\"e1f8c3b5-7f6c-4fd9-bc64-0cd582e39544\"> </a><a name=\"hce1f8c3b5-7f6c-4fd9-bc64-0cd582e39544\"> </a><div style=\"display: inline-block; background-color: #d9e0e7; padding: 6px; margin: 4px; border: 1px solid #8da1b4; border-radius: 5px; line-height: 60%\"><p style=\"margin-bottom: 0px\"/><p style=\"margin-bottom: 0px\">Profile: <a href=\"http://hl7.eu/fhir/laboratory/0.1.1/StructureDefinition-Observation-resultslab-eu-lab.html\">Observation Results: laboratory</a></p></div><p><b>status</b>: Final</p><p><b>category</b>: <span title=\"Codes:{http://terminology.hl7.org/CodeSystem/observation-category laboratory}\">Laboratory</span></p><p><b>code</b>: <span title=\"Codes:{http://loinc.org 789-8}\">Erythrocytes [#/volume] in Blood by Automated count</span></p><p><b>subject</b>: <a href=\"Bundle-Instance-Bundle-ee907eee-c157-4c57-8de3-b13d6487a703.html#urn-uuid-4931a6af-ff8b-4c4b-9522-eaa267d0e576\">Eliane Muntinga Female, DoB: 1969-02-25 ( Jurisdictional health number)</a></p><p><b>effective</b>: 2024-07-24</p><p><b>performer</b>: The Central European Lab</p><p><b>value</b>: 4 10*6/uL<span style=\"background: LightGoldenRodYellow\"> (Details: UCUM  code789-8 = '789-8')</span></p><h3>ReferenceRanges</h3><table class=\"grid\"><tr><td style=\"display: none\">-</td><td><b>Low</b></td><td><b>High</b></td></tr><tr><td style=\"display: none\">*</td><td>3.9 10*6/uL<span style=\"background: LightGoldenRodYellow\"> (Details: UCUM  code10*6/uL = '10*6/uL')</span></td><td> </td></tr><tr><td style=\"display: none\">*</td><td> </td><td>5.2 10*6/uL<span style=\"background: LightGoldenRodYellow\"> (Details: UCUM  code10*6/uL = '10*6/uL')</span></td></tr></table></div>"},"status":"final","category":[{"coding":[{"system":"http://terminology.hl7.org/CodeSystem/observation-category","code":"laboratory"}]}],"code":{"coding":[{"system":"http://loinc.org","code":"789-8","display":"Erythrocytes [#/volume] in Blood by Automated count"}],"text":"Erythrocytes [#/volume] in Blood by Automated count"},"subject":{"reference":"urn:uuid:4931a6af-ff8b-4c4b-9522-eaa267d0e576"},"effectiveDateTime":"2024-07-24","performer":[{"display":"The Central European Lab"}],"valueQuantity":{"value":4,"unit":"10*6/uL","system":"http://unitsofmeasure.org","code":"789-8"},"referenceRange":[{"low":{"value":3.9,"system":"http://unitsofmeasure.org","code":"10*6/uL"}},{"high":{"value":5.2,"system":"http://unitsofmeasure.org","code":"10*6/uL"}}]}},{"fullUrl":"urn:uuid:b56a5d3a-652e-4d2d-b239-3f1b7e283540","resource":{"resourceType":"Observation","id":"b56a5d3a-652e-4d2d-b239-3f1b7e283540","meta":{"profile":["http://hl7.eu/fhir/laboratory/StructureDefinition/Observation-resultslab-eu-lab"]},"text":{"status":"generated","div":"<div xmlns=\"http://www.w3.org/1999/xhtml\"><a name=\"Observation_b56a5d3a-652e-4d2d-b239-3f1b7e283540\"> </a><p class=\"res-header-id\"><b>Generated Narrative: Observation b56a5d3a-652e-4d2d-b239-3f1b7e283540</b></p><a name=\"b56a5d3a-652e-4d2d-b239-3f1b7e283540\"> </a><a name=\"hcb56a5d3a-652e-4d2d-b239-3f1b7e283540\"> </a><div style=\"display: inline-block; background-color: #d9e0e7; padding: 6px; margin: 4px; border: 1px solid #8da1b4; border-radius: 5px; line-height: 60%\"><p style=\"margin-bottom: 0px\"/><p style=\"margin-bottom: 0px\">Profile: <a href=\"http://hl7.eu/fhir/laboratory/0.1.1/StructureDefinition-Observation-resultslab-eu-lab.html\">Observation Results: laboratory</a></p></div><p><b>status</b>: Final</p><p><b>category</b>: <span title=\"Codes:{http://terminology.hl7.org/CodeSystem/observation-category laboratory}\">Laboratory</span></p><p><b>code</b>: <span title=\"Codes:{http://loinc.org 718-7}\">Hemoglobin [Mass/volume] in Blood</span></p><p><b>subject</b>: <a href=\"Bundle-Instance-Bundle-ee907eee-c157-4c57-8de3-b13d6487a703.html#urn-uuid-4931a6af-ff8b-4c4b-9522-eaa267d0e576\">Eliane Muntinga Female, DoB: 1969-02-25 ( Jurisdictional health number)</a></p><p><b>effective</b>: 2024-07-24</p><p><b>performer</b>: The Central European Lab</p><p><b>value</b>: 14.4 g/dL<span style=\"background: LightGoldenRodYellow\"> (Details: UCUM  code718-7 = '718-7')</span></p><h3>ReferenceRanges</h3><table class=\"grid\"><tr><td style=\"display: none\">-</td><td><b>Low</b></td><td><b>High</b></td></tr><tr><td style=\"display: none\">*</td><td>12 g/dL<span style=\"background: LightGoldenRodYellow\"> (Details: UCUM  codeg/dL = 'g/dL')</span></td><td> </td></tr><tr><td style=\"display: none\">*</td><td> </td><td>16 g/dL<span style=\"background: LightGoldenRodYellow\"> (Details: UCUM  codeg/dL = 'g/dL')</span></td></tr></table></div>"},"status":"final","category":[{"coding":[{"system":"http://terminology.hl7.org/CodeSystem/observation-category","code":"laboratory"}]}],"code":{"coding":[{"system":"http://loinc.org","code":"718-7","display":"Hemoglobin [Mass/volume] in Blood"}],"text":"Hemoglobin [Mass/volume] in Blood"},"subject":{"reference":"urn:uuid:4931a6af-ff8b-4c4b-9522-eaa267d0e576"},"effectiveDateTime":"2024-07-24","performer":[{"display":"The Central European Lab"}],"valueQuantity":{"value":14.4,"unit":"g/dL","system":"http://unitsofmeasure.org","code":"718-7"},"referenceRange":[{"low":{"value":12,"system":"http://unitsofmeasure.org","code":"g/dL"}},{"high":{"value":16,"system":"http://unitsofmeasure.org","code":"g/dL"}}]}},{"fullUrl":"urn:uuid:ca4bcbeb-b5e0-4f71-8472-d206adffb8d4","resource":{"resourceType":"Observation","id":"ca4bcbeb-b5e0-4f71-8472-d206adffb8d4","meta":{"profile":["http://hl7.eu/fhir/laboratory/StructureDefinition/Observation-resultslab-eu-lab"]},"text":{"status":"generated","div":"<div xmlns=\"http://www.w3.org/1999/xhtml\"><a name=\"Observation_ca4bcbeb-b5e0-4f71-8472-d206adffb8d4\"> </a><p class=\"res-header-id\"><b>Generated Narrative: Observation ca4bcbeb-b5e0-4f71-8472-d206adffb8d4</b></p><a name=\"ca4bcbeb-b5e0-4f71-8472-d206adffb8d4\"> </a><a name=\"hcca4bcbeb-b5e0-4f71-8472-d206adffb8d4\"> </a><div style=\"display: inline-block; background-color: #d9e0e7; padding: 6px; margin: 4px; border: 1px solid #8da1b4; border-radius: 5px; line-height: 60%\"><p style=\"margin-bottom: 0px\"/><p style=\"margin-bottom: 0px\">Profile: <a href=\"http://hl7.eu/fhir/laboratory/0.1.1/StructureDefinition-Observation-resultslab-eu-lab.html\">Observation Results: laboratory</a></p></div><p><b>status</b>: Final</p><p><b>category</b>: <span title=\"Codes:{http://terminology.hl7.org/CodeSystem/observation-category laboratory}\">Laboratory</span></p><p><b>code</b>: <span title=\"Codes:{http://loinc.org 4544-3}\">Hematocrit [Volume Fraction] of Blood by Automated count</span></p><p><b>subject</b>: <a href=\"Bundle-Instance-Bundle-ee907eee-c157-4c57-8de3-b13d6487a703.html#urn-uuid-4931a6af-ff8b-4c4b-9522-eaa267d0e576\">Eliane Muntinga Female, DoB: 1969-02-25 ( Jurisdictional health number)</a></p><p><b>effective</b>: 2024-07-24</p><p><b>performer</b>: The Central European Lab</p><p><b>value</b>: 35.3 %<span style=\"background: LightGoldenRodYellow\"> (Details: UCUM  code4544-3 = '4544-3')</span></p><p><b>interpretation</b>: <span title=\"Codes:{http://terminology.hl7.org/CodeSystem/v3-ObservationInterpretation L}\">Low</span></p><h3>ReferenceRanges</h3><table class=\"grid\"><tr><td style=\"display: none\">-</td><td><b>Low</b></td><td><b>High</b></td></tr><tr><td style=\"display: none\">*</td><td>36 %<span style=\"background: LightGoldenRodYellow\"> (Details: UCUM  code% = '%')</span></td><td> </td></tr><tr><td style=\"display: none\">*</td><td> </td><td>45 %<span style=\"background: LightGoldenRodYellow\"> (Details: UCUM  code% = '%')</span></td></tr></table></div>"},"status":"final","category":[{"coding":[{"system":"http://terminology.hl7.org/CodeSystem/observation-category","code":"laboratory"}]}],"code":{"coding":[{"system":"http://loinc.org","code":"4544-3","display":"Hematocrit [Volume Fraction] of Blood by Automated count"}],"text":"Hematocrit [Volume Fraction] of Blood by Automated count"},"subject":{"reference":"urn:uuid:4931a6af-ff8b-4c4b-9522-eaa267d0e576"},"effectiveDateTime":"2024-07-24","performer":[{"display":"The Central European Lab"}],"valueQuantity":{"value":35.3,"unit":"%","system":"http://unitsofmeasure.org","code":"4544-3"},"interpretation":[{"coding":[{"system":"http://terminology.hl7.org/CodeSystem/v3-ObservationInterpretation","code":"L","display":"Low"}]}],"referenceRange":[{"low":{"value":36,"system":"http://unitsofmeasure.org","code":"%"}},{"high":{"value":45,"system":"http://unitsofmeasure.org","code":"%"}}]}},{"fullUrl":"urn:uuid:c554030f-c45e-413d-bce4-3fbc35abae19","resource":{"resourceType":"Observation","id":"c554030f-c45e-413d-bce4-3fbc35abae19","meta":{"profile":["http://hl7.eu/fhir/laboratory/StructureDefinition/Observation-resultslab-eu-lab"]},"text":{"status":"generated","div":"<div xmlns=\"http://www.w3.org/1999/xhtml\"><a name=\"Observation_c554030f-c45e-413d-bce4-3fbc35abae19\"> </a><p class=\"res-header-id\"><b>Generated Narrative: Observation c554030f-c45e-413d-bce4-3fbc35abae19</b></p><a name=\"c554030f-c45e-413d-bce4-3fbc35abae19\"> </a><a name=\"hcc554030f-c45e-413d-bce4-3fbc35abae19\"> </a><div style=\"display: inline-block; background-color: #d9e0e7; padding: 6px; margin: 4px; border: 1px solid #8da1b4; border-radius: 5px; line-height: 60%\"><p style=\"margin-bottom: 0px\"/><p style=\"margin-bottom: 0px\">Profile: <a href=\"http://hl7.eu/fhir/laboratory/0.1.1/StructureDefinition-Observation-resultslab-eu-lab.html\">Observation Results: laboratory</a></p></div><p><b>status</b>: Final</p><p><b>category</b>: <span title=\"Codes:{http://terminology.hl7.org/CodeSystem/observation-category laboratory}\">Laboratory</span></p><p><b>code</b>: <span title=\"Codes:{http://loinc.org 787-2}\">MCV [Entitic volume] by Automated count</span></p><p><b>subject</b>: <a href=\"Bundle-Instance-Bundle-ee907eee-c157-4c57-8de3-b13d6487a703.html#urn-uuid-4931a6af-ff8b-4c4b-9522-eaa267d0e576\">Eliane Muntinga Female, DoB: 1969-02-25 ( Jurisdictional health number)</a></p><p><b>effective</b>: 2024-07-24</p><p><b>performer</b>: The Central European Lab</p><p><b>value</b>: 87.6 fL<span style=\"background: LightGoldenRodYellow\"> (Details: UCUM  code787-2 = '787-2')</span></p><h3>ReferenceRanges</h3><table class=\"grid\"><tr><td style=\"display: none\">-</td><td><b>Low</b></td><td><b>High</b></td></tr><tr><td style=\"display: none\">*</td><td>82 fL<span style=\"background: LightGoldenRodYellow\"> (Details: UCUM  codefL = 'fL')</span></td><td> </td></tr><tr><td style=\"display: none\">*</td><td> </td><td>98 fL<span style=\"background: LightGoldenRodYellow\"> (Details: UCUM  codefL = 'fL')</span></td></tr></table></div>"},"status":"final","category":[{"coding":[{"system":"http://terminology.hl7.org/CodeSystem/observation-category","code":"laboratory"}]}],"code":{"coding":[{"system":"http://loinc.org","code":"787-2","display":"MCV [Entitic volume] by Automated count"}],"text":"MCV [Entitic volume] by Automated count"},"subject":{"reference":"urn:uuid:4931a6af-ff8b-4c4b-9522-eaa267d0e576"},"effectiveDateTime":"2024-07-24","performer":[{"display":"The Central European Lab"}],"valueQuantity":{"value":87.6,"unit":"fL","system":"http://unitsofmeasure.org","code":"787-2"},"referenceRange":[{"low":{"value":82,"system":"http://unitsofmeasure.org","code":"fL"}},{"high":{"value":98,"system":"http://unitsofmeasure.org","code":"fL"}}]}},{"fullUrl":"urn:uuid:b21eb787-b054-4dc7-b9df-be0523b72f4b","resource":{"resourceType":"Observation","id":"b21eb787-b054-4dc7-b9df-be0523b72f4b","meta":{"profile":["http://hl7.eu/fhir/laboratory/StructureDefinition/Observation-resultslab-eu-lab"]},"text":{"status":"generated","div":"<div xmlns=\"http://www.w3.org/1999/xhtml\"><a name=\"Observation_b21eb787-b054-4dc7-b9df-be0523b72f4b\"> </a><p class=\"res-header-id\"><b>Generated Narrative: Observation b21eb787-b054-4dc7-b9df-be0523b72f4b</b></p><a name=\"b21eb787-b054-4dc7-b9df-be0523b72f4b\"> </a><a name=\"hcb21eb787-b054-4dc7-b9df-be0523b72f4b\"> </a><div style=\"display: inline-block; background-color: #d9e0e7; padding: 6px; margin: 4px; border: 1px solid #8da1b4; border-radius: 5px; line-height: 60%\"><p style=\"margin-bottom: 0px\"/><p style=\"margin-bottom: 0px\">Profile: <a href=\"http://hl7.eu/fhir/laboratory/0.1.1/StructureDefinition-Observation-resultslab-eu-lab.html\">Observation Results: laboratory</a></p></div><p><b>status</b>: Final</p><p><b>category</b>: <span title=\"Codes:{http://terminology.hl7.org/CodeSystem/observation-category laboratory}\">Laboratory</span></p><p><b>code</b>: <span title=\"Codes:{http://loinc.org 785-6}\">MCH [Entitic mass] by Automated count</span></p><p><b>subject</b>: <a href=\"Bundle-Instance-Bundle-ee907eee-c157-4c57-8de3-b13d6487a703.html#urn-uuid-4931a6af-ff8b-4c4b-9522-eaa267d0e576\">Eliane Muntinga Female, DoB: 1969-02-25 ( Jurisdictional health number)</a></p><p><b>effective</b>: 2024-07-24</p><p><b>performer</b>: The Central European Lab</p><p><b>value</b>: 31.8 pg<span style=\"background: LightGoldenRodYellow\"> (Details: UCUM  code785-6 = '785-6')</span></p><h3>ReferenceRanges</h3><table class=\"grid\"><tr><td style=\"display: none\">-</td><td><b>Low</b></td><td><b>High</b></td></tr><tr><td style=\"display: none\">*</td><td>27 pg<span style=\"background: LightGoldenRodYellow\"> (Details: UCUM  codepg = 'pg')</span></td><td> </td></tr><tr><td style=\"display: none\">*</td><td> </td><td>34.5 pg<span style=\"background: LightGoldenRodYellow\"> (Details: UCUM  codepg = 'pg')</span></td></tr></table></div>"},"status":"final","category":[{"coding":[{"system":"http://terminology.hl7.org/CodeSystem/observation-category","code":"laboratory"}]}],"code":{"coding":[{"system":"http://loinc.org","code":"785-6","display":"MCH [Entitic mass] by Automated count"}],"text":"MCH [Entitic mass] by Automated count"},"subject":{"reference":"urn:uuid:4931a6af-ff8b-4c4b-9522-eaa267d0e576"},"effectiveDateTime":"2024-07-24","performer":[{"display":"The Central European Lab"}],"valueQuantity":{"value":31.8,"unit":"pg","system":"http://unitsofmeasure.org","code":"785-6"},"referenceRange":[{"low":{"value":27,"system":"http://unitsofmeasure.org","code":"pg"}},{"high":{"value":34.5,"system":"http://unitsofmeasure.org","code":"pg"}}]}},{"fullUrl":"urn:uuid:161843e1-0f67-43a1-8b02-9e4319310329","resource":{"resourceType":"Observation","id":"161843e1-0f67-43a1-8b02-9e4319310329","meta":{"profile":["http://hl7.eu/fhir/laboratory/StructureDefinition/Observation-resultslab-eu-lab"]},"text":{"status":"generated","div":"<div xmlns=\"http://www.w3.org/1999/xhtml\"><a name=\"Observation_161843e1-0f67-43a1-8b02-9e4319310329\"> </a><p class=\"res-header-id\"><b>Generated Narrative: Observation 161843e1-0f67-43a1-8b02-9e4319310329</b></p><a name=\"161843e1-0f67-43a1-8b02-9e4319310329\"> </a><a name=\"hc161843e1-0f67-43a1-8b02-9e4319310329\"> </a><div style=\"display: inline-block; background-color: #d9e0e7; padding: 6px; margin: 4px; border: 1px solid #8da1b4; border-radius: 5px; line-height: 60%\"><p style=\"margin-bottom: 0px\"/><p style=\"margin-bottom: 0px\">Profile: <a href=\"http://hl7.eu/fhir/laboratory/0.1.1/StructureDefinition-Observation-resultslab-eu-lab.html\">Observation Results: laboratory</a></p></div><p><b>status</b>: Final</p><p><b>category</b>: <span title=\"Codes:{http://terminology.hl7.org/CodeSystem/observation-category laboratory}\">Laboratory</span></p><p><b>code</b>: <span title=\"Codes:{http://loinc.org 786-4}\">MCHC [Mass/volume] by Automated count</span></p><p><b>subject</b>: <a href=\"Bundle-Instance-Bundle-ee907eee-c157-4c57-8de3-b13d6487a703.html#urn-uuid-4931a6af-ff8b-4c4b-9522-eaa267d0e576\">Eliane Muntinga Female, DoB: 1969-02-25 ( Jurisdictional health number)</a></p><p><b>effective</b>: 2024-07-24</p><p><b>performer</b>: The Central European Lab</p><p><b>value</b>: 33.7 g/dL<span style=\"background: LightGoldenRodYellow\"> (Details: UCUM  code786-4 = '786-4')</span></p><h3>ReferenceRanges</h3><table class=\"grid\"><tr><td style=\"display: none\">-</td><td><b>Low</b></td><td><b>High</b></td></tr><tr><td style=\"display: none\">*</td><td>31 g/dL<span style=\"background: LightGoldenRodYellow\"> (Details: UCUM  codeg/dL = 'g/dL')</span></td><td> </td></tr><tr><td style=\"display: none\">*</td><td> </td><td>35 g/dL<span style=\"background: LightGoldenRodYellow\"> (Details: UCUM  codeg/dL = 'g/dL')</span></td></tr></table></div>"},"status":"final","category":[{"coding":[{"system":"http://terminology.hl7.org/CodeSystem/observation-category","code":"laboratory"}]}],"code":{"coding":[{"system":"http://loinc.org","code":"786-4","display":"MCHC [Mass/volume] by Automated count"}],"text":"MCHC [Mass/volume] by Automated count"},"subject":{"reference":"urn:uuid:4931a6af-ff8b-4c4b-9522-eaa267d0e576"},"effectiveDateTime":"2024-07-24","performer":[{"display":"The Central European Lab"}],"valueQuantity":{"value":33.7,"unit":"g/dL","system":"http://unitsofmeasure.org","code":"786-4"},"referenceRange":[{"low":{"value":31,"system":"http://unitsofmeasure.org","code":"g/dL"}},{"high":{"value":35,"system":"http://unitsofmeasure.org","code":"g/dL"}}]}},{"fullUrl":"urn:uuid:e4c2fdec-02cc-4607-a345-812ea97e2545","resource":{"resourceType":"Observation","id":"e4c2fdec-02cc-4607-a345-812ea97e2545","meta":{"profile":["http://hl7.eu/fhir/laboratory/StructureDefinition/Observation-resultslab-eu-lab"]},"text":{"status":"generated","div":"<div xmlns=\"http://www.w3.org/1999/xhtml\"><a name=\"Observation_e4c2fdec-02cc-4607-a345-812ea97e2545\"> </a><p class=\"res-header-id\"><b>Generated Narrative: Observation e4c2fdec-02cc-4607-a345-812ea97e2545</b></p><a name=\"e4c2fdec-02cc-4607-a345-812ea97e2545\"> </a><a name=\"hce4c2fdec-02cc-4607-a345-812ea97e2545\"> </a><div style=\"display: inline-block; background-color: #d9e0e7; padding: 6px; margin: 4px; border: 1px solid #8da1b4; border-radius: 5px; line-height: 60%\"><p style=\"margin-bottom: 0px\"/><p style=\"margin-bottom: 0px\">Profile: <a href=\"http://hl7.eu/fhir/laboratory/0.1.1/StructureDefinition-Observation-resultslab-eu-lab.html\">Observation Results: laboratory</a></p></div><p><b>status</b>: Final</p><p><b>category</b>: <span title=\"Codes:{http://terminology.hl7.org/CodeSystem/observation-category laboratory}\">Laboratory</span></p><p><b>code</b>: <span title=\"Codes:{http://loinc.org 21000-5}\">Erythrocyte distribution width [Entitic volume] by Automated count</span></p><p><b>subject</b>: <a href=\"Bundle-Instance-Bundle-ee907eee-c157-4c57-8de3-b13d6487a703.html#urn-uuid-4931a6af-ff8b-4c4b-9522-eaa267d0e576\">Eliane Muntinga Female, DoB: 1969-02-25 ( Jurisdictional health number)</a></p><p><b>effective</b>: 2024-07-24</p><p><b>performer</b>: The Central European Lab</p><p><b>value</b>: 45 fL<span style=\"background: LightGoldenRodYellow\"> (Details: UCUM  code21000-5 = '21000-5')</span></p><h3>ReferenceRanges</h3><table class=\"grid\"><tr><td style=\"display: none\">-</td><td><b>Low</b></td><td><b>High</b></td></tr><tr><td style=\"display: none\">*</td><td>35 fL<span style=\"background: LightGoldenRodYellow\"> (Details: UCUM  codefL = 'fL')</span></td><td> </td></tr><tr><td style=\"display: none\">*</td><td> </td><td>55 fL<span style=\"background: LightGoldenRodYellow\"> (Details: UCUM  codefL = 'fL')</span></td></tr></table></div>"},"status":"final","category":[{"coding":[{"system":"http://terminology.hl7.org/CodeSystem/observation-category","code":"laboratory"}]}],"code":{"coding":[{"system":"http://loinc.org","code":"21000-5","display":"Erythrocyte distribution width [Entitic volume] by Automated count"}],"text":"Erythrocyte distribution width [Entitic volume] by Automated count"},"subject":{"reference":"urn:uuid:4931a6af-ff8b-4c4b-9522-eaa267d0e576"},"effectiveDateTime":"2024-07-24","performer":[{"display":"The Central European Lab"}],"valueQuantity":{"value":45,"unit":"fL","system":"http://unitsofmeasure.org","code":"21000-5"},"referenceRange":[{"low":{"value":35,"system":"http://unitsofmeasure.org","code":"fL"}},{"high":{"value":55,"system":"http://unitsofmeasure.org","code":"fL"}}]}},{"fullUrl":"urn:uuid:b3260057-502c-4601-88d2-ab831932bf20","resource":{"resourceType":"Observation","id":"b3260057-502c-4601-88d2-ab831932bf20","meta":{"profile":["http://hl7.eu/fhir/laboratory/StructureDefinition/Observation-resultslab-eu-lab"]},"text":{"status":"generated","div":"<div xmlns=\"http://www.w3.org/1999/xhtml\"><a name=\"Observation_b3260057-502c-4601-88d2-ab831932bf20\"> </a><p class=\"res-header-id\"><b>Generated Narrative: Observation b3260057-502c-4601-88d2-ab831932bf20</b></p><a name=\"b3260057-502c-4601-88d2-ab831932bf20\"> </a><a name=\"hcb3260057-502c-4601-88d2-ab831932bf20\"> </a><div style=\"display: inline-block; background-color: #d9e0e7; padding: 6px; margin: 4px; border: 1px solid #8da1b4; border-radius: 5px; line-height: 60%\"><p style=\"margin-bottom: 0px\"/><p style=\"margin-bottom: 0px\">Profile: <a href=\"http://hl7.eu/fhir/laboratory/0.1.1/StructureDefinition-Observation-resultslab-eu-lab.html\">Observation Results: laboratory</a></p></div><p><b>status</b>: Final</p><p><b>category</b>: <span title=\"Codes:{http://terminology.hl7.org/CodeSystem/observation-category laboratory}\">Laboratory</span></p><p><b>code</b>: <span title=\"Codes:{http://loinc.org 777-3}\">Platelets [#/volume] in Blood by Automated count</span></p><p><b>subject</b>: <a href=\"Bundle-Instance-Bundle-ee907eee-c157-4c57-8de3-b13d6487a703.html#urn-uuid-4931a6af-ff8b-4c4b-9522-eaa267d0e576\">Eliane Muntinga Female, DoB: 1969-02-25 ( Jurisdictional health number)</a></p><p><b>effective</b>: 2024-07-24</p><p><b>performer</b>: The Central European Lab</p><p><b>value</b>: 448 10*3/uL<span style=\"background: LightGoldenRodYellow\"> (Details: UCUM  code777-3 = '777-3')</span></p><h3>ReferenceRanges</h3><table class=\"grid\"><tr><td style=\"display: none\">-</td><td><b>Low</b></td><td><b>High</b></td></tr><tr><td style=\"display: none\">*</td><td>150 10*3/uL<span style=\"background: LightGoldenRodYellow\"> (Details: UCUM  code10*3/uL = '10*3/uL')</span></td><td> </td></tr><tr><td style=\"display: none\">*</td><td> </td><td>450 10*3/uL<span style=\"background: LightGoldenRodYellow\"> (Details: UCUM  code10*3/uL = '10*3/uL')</span></td></tr></table></div>"},"status":"final","category":[{"coding":[{"system":"http://terminology.hl7.org/CodeSystem/observation-category","code":"laboratory"}]}],"code":{"coding":[{"system":"http://loinc.org","code":"777-3","display":"Platelets [#/volume] in Blood by Automated count"}],"text":"Platelets [#/volume] in Blood by Automated count"},"subject":{"reference":"urn:uuid:4931a6af-ff8b-4c4b-9522-eaa267d0e576"},"effectiveDateTime":"2024-07-24","performer":[{"display":"The Central European Lab"}],"valueQuantity":{"value":448,"unit":"10*3/uL","system":"http://unitsofmeasure.org","code":"777-3"},"referenceRange":[{"low":{"value":150,"system":"http://unitsofmeasure.org","code":"10*3/uL"}},{"high":{"value":450,"system":"http://unitsofmeasure.org","code":"10*3/uL"}}]}},{"fullUrl":"urn:uuid:72eab022-ab3b-4d2d-b4dd-431152f28a93","resource":{"resourceType":"Observation","id":"72eab022-ab3b-4d2d-b4dd-431152f28a93","meta":{"profile":["http://hl7.eu/fhir/laboratory/StructureDefinition/Observation-resultslab-eu-lab"]},"text":{"status":"generated","div":"<div xmlns=\"http://www.w3.org/1999/xhtml\"><a name=\"Observation_72eab022-ab3b-4d2d-b4dd-431152f28a93\"> </a><p class=\"res-header-id\"><b>Generated Narrative: Observation 72eab022-ab3b-4d2d-b4dd-431152f28a93</b></p><a name=\"72eab022-ab3b-4d2d-b4dd-431152f28a93\"> </a><a name=\"hc72eab022-ab3b-4d2d-b4dd-431152f28a93\"> </a><div style=\"display: inline-block; background-color: #d9e0e7; padding: 6px; margin: 4px; border: 1px solid #8da1b4; border-radius: 5px; line-height: 60%\"><p style=\"margin-bottom: 0px\"/><p style=\"margin-bottom: 0px\">Profile: <a href=\"http://hl7.eu/fhir/laboratory/0.1.1/StructureDefinition-Observation-resultslab-eu-lab.html\">Observation Results: laboratory</a></p></div><p><b>status</b>: Final</p><p><b>category</b>: <span title=\"Codes:{http://terminology.hl7.org/CodeSystem/observation-category laboratory}\">Laboratory</span></p><p><b>code</b>: <span title=\"Codes:{http://loinc.org 32207-3}\">Platelet distribution width [Entitic volume] in Blood by Automated count</span></p><p><b>subject</b>: <a href=\"Bundle-Instance-Bundle-ee907eee-c157-4c57-8de3-b13d6487a703.html#urn-uuid-4931a6af-ff8b-4c4b-9522-eaa267d0e576\">Eliane Muntinga Female, DoB: 1969-02-25 ( Jurisdictional health number)</a></p><p><b>effective</b>: 2024-07-24</p><p><b>performer</b>: The Central European Lab</p><p><b>value</b>: 410.2 fL<span style=\"background: LightGoldenRodYellow\"> (Details: UCUM  code32207-3 = '32207-3')</span></p><p><b>interpretation</b>: <span title=\"Codes:{http://terminology.hl7.org/CodeSystem/v3-ObservationInterpretation H}\">High</span></p><h3>ReferenceRanges</h3><table class=\"grid\"><tr><td style=\"display: none\">-</td><td><b>Low</b></td><td><b>High</b></td></tr><tr><td style=\"display: none\">*</td><td>11.6 fL<span style=\"background: LightGoldenRodYellow\"> (Details: UCUM  codefL = 'fL')</span></td><td> </td></tr><tr><td style=\"display: none\">*</td><td> </td><td>17.4 fL<span style=\"background: LightGoldenRodYellow\"> (Details: UCUM  codefL = 'fL')</span></td></tr></table></div>"},"status":"final","category":[{"coding":[{"system":"http://terminology.hl7.org/CodeSystem/observation-category","code":"laboratory"}]}],"code":{"coding":[{"system":"http://loinc.org","code":"32207-3","display":"Platelet distribution width [Entitic volume] in Blood by Automated count"}],"text":"Platelet distribution width [Entitic volume] in Blood by Automated count"},"subject":{"reference":"urn:uuid:4931a6af-ff8b-4c4b-9522-eaa267d0e576"},"effectiveDateTime":"2024-07-24","performer":[{"display":"The Central European Lab"}],"valueQuantity":{"value":410.2,"unit":"fL","system":"http://unitsofmeasure.org","code":"32207-3"},"interpretation":[{"coding":[{"system":"http://terminology.hl7.org/CodeSystem/v3-ObservationInterpretation","code":"H","display":"High"}]}],"referenceRange":[{"low":{"value":11.6,"system":"http://unitsofmeasure.org","code":"fL"}},{"high":{"value":17.4,"system":"http://unitsofmeasure.org","code":"fL"}}]}},{"fullUrl":"urn:uuid:c694aa21-a1e4-422d-bd78-d00b363a90f2","resource":{"resourceType":"Observation","id":"c694aa21-a1e4-422d-bd78-d00b363a90f2","meta":{"profile":["http://hl7.eu/fhir/laboratory/StructureDefinition/Observation-resultslab-eu-lab"]},"text":{"status":"generated","div":"<div xmlns=\"http://www.w3.org/1999/xhtml\"><a name=\"Observation_c694aa21-a1e4-422d-bd78-d00b363a90f2\"> </a><p class=\"res-header-id\"><b>Generated Narrative: Observation c694aa21-a1e4-422d-bd78-d00b363a90f2</b></p><a name=\"c694aa21-a1e4-422d-bd78-d00b363a90f2\"> </a><a name=\"hcc694aa21-a1e4-422d-bd78-d00b363a90f2\"> </a><div style=\"display: inline-block; background-color: #d9e0e7; padding: 6px; margin: 4px; border: 1px solid #8da1b4; border-radius: 5px; line-height: 60%\"><p style=\"margin-bottom: 0px\"/><p style=\"margin-bottom: 0px\">Profile: <a href=\"http://hl7.eu/fhir/laboratory/0.1.1/StructureDefinition-Observation-resultslab-eu-lab.html\">Observation Results: laboratory</a></p></div><p><b>status</b>: Final</p><p><b>category</b>: <span title=\"Codes:{http://terminology.hl7.org/CodeSystem/observation-category laboratory}\">Laboratory</span></p><p><b>code</b>: <span title=\"Codes:{http://loinc.org 32623-1}\">Platelet mean volume [Entitic volume] in Blood by Automated count</span></p><p><b>subject</b>: <a href=\"Bundle-Instance-Bundle-ee907eee-c157-4c57-8de3-b13d6487a703.html#urn-uuid-4931a6af-ff8b-4c4b-9522-eaa267d0e576\">Eliane Muntinga Female, DoB: 1969-02-25 ( Jurisdictional health number)</a></p><p><b>effective</b>: 2024-07-24</p><p><b>performer</b>: The Central European Lab</p><p><b>value</b>: 11.6 fL<span style=\"background: LightGoldenRodYellow\"> (Details: UCUM  code32623-1 = '32623-1')</span></p><h3>ReferenceRanges</h3><table class=\"grid\"><tr><td style=\"display: none\">-</td><td><b>Low</b></td><td><b>High</b></td></tr><tr><td style=\"display: none\">*</td><td>9.4 fL<span style=\"background: LightGoldenRodYellow\"> (Details: UCUM  codefL = 'fL')</span></td><td> </td></tr><tr><td style=\"display: none\">*</td><td> </td><td>14 fL<span style=\"background: LightGoldenRodYellow\"> (Details: UCUM  codefL = 'fL')</span></td></tr></table></div>"},"status":"final","category":[{"coding":[{"system":"http://terminology.hl7.org/CodeSystem/observation-category","code":"laboratory"}]}],"code":{"coding":[{"system":"http://loinc.org","code":"32623-1","display":"Platelet mean volume [Entitic volume] in Blood by Automated count"}],"text":"Platelet mean volume [Entitic volume] in Blood by Automated count"},"subject":{"reference":"urn:uuid:4931a6af-ff8b-4c4b-9522-eaa267d0e576"},"effectiveDateTime":"2024-07-24","performer":[{"display":"The Central European Lab"}],"valueQuantity":{"value":11.6,"unit":"fL","system":"http://unitsofmeasure.org","code":"32623-1"},"referenceRange":[{"low":{"value":9.4,"system":"http://unitsofmeasure.org","code":"fL"}},{"high":{"value":14,"system":"http://unitsofmeasure.org","code":"fL"}}]}},{"fullUrl":"urn:uuid:dfaf066d-562d-4fe7-8c39-292a7fae48a4","resource":{"resourceType":"DeviceUseStatement","id":"dfaf066d-562d-4fe7-8c39-292a7fae48a4","meta":{"profile":["http://hl7.eu/fhir/eps/StructureDefinition/deviceUseStatement-eu-eps"]},"text":{"status":"generated","div":"<div xmlns=\"http://www.w3.org/1999/xhtml\"><a name=\"DeviceUseStatement_dfaf066d-562d-4fe7-8c39-292a7fae48a4\"> </a><table class=\"hl7__ips\"><tr><td>Oxygen concentrator (physical object)</td><td><span class=\"nb\">2022-07-13</span></td></tr></table></div>"},"status":"active","subject":{"reference":"urn:uuid:4931a6af-ff8b-4c4b-9522-eaa267d0e576","display":"Eliane Muntinga"},"timingPeriod":{"start":"2022-07-13"},"device":{"reference":"urn:uuid:e9b6e563-c1f8-4525-90f3-3c8a2545aa2d","display":"Oxygen concentrator (physical object)"}}},{"fullUrl":"urn:uuid:dfaf066d-562d-4fe7-8c39-292a7fae48a4","resource":{"resourceType":"Device","id":"e9b6e563-c1f8-4525-90f3-3c8a2545aa2d","meta":{"profile":["http://hl7.eu/fhir/eps/StructureDefinition/device-eu-eps"]},"text":{"status":"generated","div":"<div xmlns=\"http://www.w3.org/1999/xhtml\"><a name=\"Device_e9b6e563-c1f8-4525-90f3-3c8a2545aa2d\"> </a><p class=\"res-header-id\"><b>Generated Narrative: Device e9b6e563-c1f8-4525-90f3-3c8a2545aa2d</b></p><a name=\"e9b6e563-c1f8-4525-90f3-3c8a2545aa2d\"> </a><a name=\"hce9b6e563-c1f8-4525-90f3-3c8a2545aa2d\"> </a><div style=\"display: inline-block; background-color: #d9e0e7; padding: 6px; margin: 4px; border: 1px solid #8da1b4; border-radius: 5px; line-height: 60%\"><p style=\"margin-bottom: 0px\"/><p style=\"margin-bottom: 0px\">Profile: <a href=\"StructureDefinition-device-eu-eps.html\">Device (EPS)</a></p></div><blockquote><p><b>udiCarrier</b></p><blockquote><p><b>id</b></p>(01)72414451298513(11)220622(17)470707(10)4423614173096132290(21)690181734714164617</blockquote></blockquote><p><b>status</b>: Active</p><p><b>type</b>: <span title=\"Codes:{http://snomed.info/sct 336621006}\">Oxygen concentrator (physical object)</span></p><p><b>patient</b>: <a href=\"Bundle-Instance-Bundle-ee907eee-c157-4c57-8de3-b13d6487a703.html#urn-uuid-4931a6af-ff8b-4c4b-9522-eaa267d0e576\">Eliane Muntinga</a></p></div>"},"udiCarrier":[{"id":"(01)72414451298513(11)220622(17)470707(10)4423614173096132290(21)690181734714164617"}],"status":"active","type":{"coding":[{"system":"http://snomed.info/sct","code":"336621006","display":"Oxygen concentrator (physical object)"}]},"patient":{"reference":"urn:uuid:4931a6af-ff8b-4c4b-9522-eaa267d0e576","display":"Eliane Muntinga"}}},{"fullUrl":"urn:uuid:5759e6d8-10da-442e-839e-bdc87592d9e7","resource":{"resourceType":"DeviceUseStatement","id":"5759e6d8-10da-442e-839e-bdc87592d9e7","meta":{"profile":["http://hl7.eu/fhir/eps/StructureDefinition/deviceUseStatement-eu-eps"]},"text":{"status":"generated","div":"<div xmlns=\"http://www.w3.org/1999/xhtml\"><a name=\"DeviceUseStatement_5759e6d8-10da-442e-839e-bdc87592d9e7\"> </a><table class=\"hl7__ips\"><tr><td>Portable oxygen concentrator (physical object)</td><td><span class=\"nb\">2020-07-01</span></td></tr></table></div>"},"status":"active","subject":{"reference":"urn:uuid:4931a6af-ff8b-4c4b-9522-eaa267d0e576","display":"Eliane Muntinga"},"timingPeriod":{"start":"2020-07-01"},"device":{"reference":"urn:uuid:a2c66fc6-aead-40ff-9fe4-b277e71a522e","display":"Portable oxygen concentrator (physical object)"}}},{"fullUrl":"urn:uuid:5759e6d8-10da-442e-839e-bdc87592d9e7","resource":{"resourceType":"Device","id":"a2c66fc6-aead-40ff-9fe4-b277e71a522e","meta":{"profile":["http://hl7.eu/fhir/eps/StructureDefinition/device-eu-eps"]},"text":{"status":"generated","div":"<div xmlns=\"http://www.w3.org/1999/xhtml\"><a name=\"Device_a2c66fc6-aead-40ff-9fe4-b277e71a522e\"> </a><p class=\"res-header-id\"><b>Generated Narrative: Device a2c66fc6-aead-40ff-9fe4-b277e71a522e</b></p><a name=\"a2c66fc6-aead-40ff-9fe4-b277e71a522e\"> </a><a name=\"hca2c66fc6-aead-40ff-9fe4-b277e71a522e\"> </a><div style=\"display: inline-block; background-color: #d9e0e7; padding: 6px; margin: 4px; border: 1px solid #8da1b4; border-radius: 5px; line-height: 60%\"><p style=\"margin-bottom: 0px\"/><p style=\"margin-bottom: 0px\">Profile: <a href=\"StructureDefinition-device-eu-eps.html\">Device (EPS)</a></p></div><blockquote><p><b>udiCarrier</b></p><blockquote><p><b>id</b></p>(01)12607895026184(11)200610(17)450625(10)85239924(21)55059024738</blockquote></blockquote><p><b>status</b>: Active</p><p><b>type</b>: <span title=\"Codes:{http://snomed.info/sct 464173000}\">Portable oxygen concentrator (physical object)</span></p><p><b>patient</b>: <a href=\"Bundle-Instance-Bundle-ee907eee-c157-4c57-8de3-b13d6487a703.html#urn-uuid-4931a6af-ff8b-4c4b-9522-eaa267d0e576\">Eliane Muntinga</a></p></div>"},"udiCarrier":[{"id":"(01)12607895026184(11)200610(17)450625(10)85239924(21)55059024738"}],"status":"active","type":{"coding":[{"system":"http://snomed.info/sct","code":"464173000","display":"Portable oxygen concentrator (physical object)"}]},"patient":{"reference":"urn:uuid:4931a6af-ff8b-4c4b-9522-eaa267d0e576","display":"Eliane Muntinga"}}},{"fullUrl":"urn:uuid:f510a9d6-eb4b-4119-8b32-4486e94a2ea5","resource":{"resourceType":"DeviceUseStatement","id":"f510a9d6-eb4b-4119-8b32-4486e94a2ea5","meta":{"profile":["http://hl7.eu/fhir/eps/StructureDefinition/deviceUseStatement-eu-eps"]},"text":{"status":"generated","div":"<div xmlns=\"http://www.w3.org/1999/xhtml\"><a name=\"DeviceUseStatement_f510a9d6-eb4b-4119-8b32-4486e94a2ea5\"> </a><table class=\"hl7__ips\"><tr><td>Wheelchair accessory (physical object)</td><td><span class=\"nb\">2016-06-24</span></td></tr></table></div>"},"status":"active","subject":{"reference":"urn:uuid:4931a6af-ff8b-4c4b-9522-eaa267d0e576","display":"Eliane Muntinga"},"timingPeriod":{"start":"2016-06-24"},"device":{"reference":"urn:uuid:7acf9fd1-e699-45f9-87e5-658fa885fda2","display":"Wheelchair accessory (physical object)"}}},{"fullUrl":"urn:uuid:f510a9d6-eb4b-4119-8b32-4486e94a2ea5","resource":{"resourceType":"Device","id":"7acf9fd1-e699-45f9-87e5-658fa885fda2","meta":{"profile":["http://hl7.eu/fhir/eps/StructureDefinition/device-eu-eps"]},"text":{"status":"generated","div":"<div xmlns=\"http://www.w3.org/1999/xhtml\"><a name=\"Device_7acf9fd1-e699-45f9-87e5-658fa885fda2\"> </a><p class=\"res-header-id\"><b>Generated Narrative: Device 7acf9fd1-e699-45f9-87e5-658fa885fda2</b></p><a name=\"7acf9fd1-e699-45f9-87e5-658fa885fda2\"> </a><a name=\"hc7acf9fd1-e699-45f9-87e5-658fa885fda2\"> </a><div style=\"display: inline-block; background-color: #d9e0e7; padding: 6px; margin: 4px; border: 1px solid #8da1b4; border-radius: 5px; line-height: 60%\"><p style=\"margin-bottom: 0px\"/><p style=\"margin-bottom: 0px\">Profile: <a href=\"StructureDefinition-device-eu-eps.html\">Device (EPS)</a></p></div><blockquote><p><b>udiCarrier</b></p><blockquote><p><b>id</b></p>(01)40440227790454(11)160603(17)410618(10)73453153341(21)501975269661</blockquote></blockquote><p><b>status</b>: Active</p><p><b>type</b>: <span title=\"Codes:{http://snomed.info/sct 705417005}\">Wheelchair accessory (physical object)</span></p><p><b>patient</b>: <a href=\"Bundle-Instance-Bundle-ee907eee-c157-4c57-8de3-b13d6487a703.html#urn-uuid-4931a6af-ff8b-4c4b-9522-eaa267d0e576\">Eliane Muntinga</a></p></div>"},"udiCarrier":[{"id":"(01)40440227790454(11)160603(17)410618(10)73453153341(21)501975269661"}],"status":"active","type":{"coding":[{"system":"http://snomed.info/sct","code":"705417005","display":"Wheelchair accessory (physical object)"}]},"patient":{"reference":"urn:uuid:4931a6af-ff8b-4c4b-9522-eaa267d0e576","display":"Eliane Muntinga"}}},{"fullUrl":"urn:uuid:83200038-2568-4a68-b68f-9a6c73bcf53a","resource":{"resourceType":"DeviceUseStatement","id":"83200038-2568-4a68-b68f-9a6c73bcf53a","meta":{"profile":["http://hl7.eu/fhir/eps/StructureDefinition/deviceUseStatement-eu-eps"]},"text":{"status":"generated","div":"<div xmlns=\"http://www.w3.org/1999/xhtml\"><a name=\"DeviceUseStatement_83200038-2568-4a68-b68f-9a6c73bcf53a\"> </a><table class=\"hl7__ips\"><tr><td>Power-assisted wheelchair (physical object)</td><td><span class=\"nb\">2016-06-24</span></td></tr></table></div>"},"status":"active","subject":{"reference":"urn:uuid:4931a6af-ff8b-4c4b-9522-eaa267d0e576","display":"Eliane Muntinga"},"timingPeriod":{"start":"2016-06-24"},"device":{"reference":"urn:uuid:9a057184-0681-45d9-8dde-48b862a25162","display":"Power-assisted wheelchair (physical object)"}}},{"fullUrl":"urn:uuid:83200038-2568-4a68-b68f-9a6c73bcf53a","resource":{"resourceType":"Device","id":"9a057184-0681-45d9-8dde-48b862a25162","meta":{"profile":["http://hl7.eu/fhir/eps/StructureDefinition/device-eu-eps"]},"text":{"status":"generated","div":"<div xmlns=\"http://www.w3.org/1999/xhtml\"><a name=\"Device_9a057184-0681-45d9-8dde-48b862a25162\"> </a><p class=\"res-header-id\"><b>Generated Narrative: Device 9a057184-0681-45d9-8dde-48b862a25162</b></p><a name=\"9a057184-0681-45d9-8dde-48b862a25162\"> </a><a name=\"hc9a057184-0681-45d9-8dde-48b862a25162\"> </a><div style=\"display: inline-block; background-color: #d9e0e7; padding: 6px; margin: 4px; border: 1px solid #8da1b4; border-radius: 5px; line-height: 60%\"><p style=\"margin-bottom: 0px\"/><p style=\"margin-bottom: 0px\">Profile: <a href=\"StructureDefinition-device-eu-eps.html\">Device (EPS)</a></p></div><blockquote><p><b>udiCarrier</b></p><blockquote><p><b>id</b></p>(01)65472792172729(11)160603(17)410618(10)289932158(21)3604440419517</blockquote></blockquote><p><b>status</b>: Active</p><p><b>type</b>: <span title=\"Codes:{http://snomed.info/sct 705427004}\">Power-assisted wheelchair (physical object)</span></p><p><b>patient</b>: <a href=\"Bundle-Instance-Bundle-ee907eee-c157-4c57-8de3-b13d6487a703.html#urn-uuid-4931a6af-ff8b-4c4b-9522-eaa267d0e576\">Eliane Muntinga</a></p></div>"},"udiCarrier":[{"id":"(01)65472792172729(11)160603(17)410618(10)289932158(21)3604440419517"}],"status":"active","type":{"coding":[{"system":"http://snomed.info/sct","code":"705427004","display":"Power-assisted wheelchair (physical object)"}]},"patient":{"reference":"urn:uuid:4931a6af-ff8b-4c4b-9522-eaa267d0e576","display":"Eliane Muntinga"}}},{"fullUrl":"urn:uuid:e92aec7b-a9b4-4e23-94b8-a945e853355f","resource":{"resourceType":"DeviceUseStatement","id":"e92aec7b-a9b4-4e23-94b8-a945e853355f","meta":{"profile":["http://hl7.eu/fhir/eps/StructureDefinition/deviceUseStatement-eu-eps"]},"text":{"status":"generated","div":"<div xmlns=\"http://www.w3.org/1999/xhtml\"><a name=\"DeviceUseStatement_e92aec7b-a9b4-4e23-94b8-a945e853355f\"> </a><table class=\"hl7__ips\"><tr><td>Blood glucose meter (physical object)</td><td><span class=\"nb\">1991-02-13</span></td></tr></table></div>"},"status":"active","subject":{"reference":"urn:uuid:4931a6af-ff8b-4c4b-9522-eaa267d0e576","display":"Eliane Muntinga"},"timingPeriod":{"start":"1991-02-13"},"device":{"reference":"urn:uuid:38d27c3c-b04c-4514-b4a2-9bad0f5e8dad","display":"Blood glucose meter (physical object)"}}},{"fullUrl":"urn:uuid:e92aec7b-a9b4-4e23-94b8-a945e853355f","resource":{"resourceType":"Device","id":"38d27c3c-b04c-4514-b4a2-9bad0f5e8dad","meta":{"profile":["http://hl7.eu/fhir/eps/StructureDefinition/device-eu-eps"]},"text":{"status":"generated","div":"<div xmlns=\"http://www.w3.org/1999/xhtml\"><a name=\"Device_38d27c3c-b04c-4514-b4a2-9bad0f5e8dad\"> </a><p class=\"res-header-id\"><b>Generated Narrative: Device 38d27c3c-b04c-4514-b4a2-9bad0f5e8dad</b></p><a name=\"38d27c3c-b04c-4514-b4a2-9bad0f5e8dad\"> </a><a name=\"hc38d27c3c-b04c-4514-b4a2-9bad0f5e8dad\"> </a><div style=\"display: inline-block; background-color: #d9e0e7; padding: 6px; margin: 4px; border: 1px solid #8da1b4; border-radius: 5px; line-height: 60%\"><p style=\"margin-bottom: 0px\"/><p style=\"margin-bottom: 0px\">Profile: <a href=\"StructureDefinition-device-eu-eps.html\">Device (EPS)</a></p></div><blockquote><p><b>udiCarrier</b></p><blockquote><p><b>id</b></p>(01)85791496633594(11)910123(17)160207(10)574578553591936(21)46991</blockquote></blockquote><p><b>status</b>: Active</p><p><b>type</b>: <span title=\"Codes:{http://snomed.info/sct 337414009}\">Blood glucose meter (physical object)</span></p><p><b>patient</b>: <a href=\"Bundle-Instance-Bundle-ee907eee-c157-4c57-8de3-b13d6487a703.html#urn-uuid-4931a6af-ff8b-4c4b-9522-eaa267d0e576\">Eliane Muntinga</a></p></div>"},"udiCarrier":[{"id":"(01)85791496633594(11)910123(17)160207(10)574578553591936(21)46991"}],"status":"active","type":{"coding":[{"system":"http://snomed.info/sct","code":"337414009","display":"Blood glucose meter (physical object)"}]},"patient":{"reference":"urn:uuid:4931a6af-ff8b-4c4b-9522-eaa267d0e576","display":"Eliane Muntinga"}}}]}