{"resourceType":"Bundle","id":"Instance-Bundle-77013a3f-bd32-4284-a08f-77750c8705bf","meta":{"profile":["http://hl7.eu/fhir/eps/StructureDefinition/bundle-eu-eps"]},"identifier":{"system":"urn:oid:2.16.840.1.113883.2.51.999","value":"012a90ca-a987-4631-b1f0-ae3c3b775c24","assigner":{"display":"HL7 Europe"}},"type":"document","timestamp":"2025-08-31T17:37:54Z","entry":[{"fullUrl":"urn:uuid:b594d198-902a-432c-8d28-ea20170b601a","resource":{"resourceType":"Composition","id":"b594d198-902a-432c-8d28-ea20170b601a","meta":{"profile":["http://hl7.eu/fhir/eps/StructureDefinition/composition-eu-eps"]},"text":{"status":"generated","div":"<div xmlns=\"http://www.w3.org/1999/xhtml\"><a name=\"Composition_b594d198-902a-432c-8d28-ea20170b601a\"> </a><p class=\"res-header-id\"><b>Generated Narrative: Composition b594d198-902a-432c-8d28-ea20170b601a</b></p><a name=\"b594d198-902a-432c-8d28-ea20170b601a\"> </a><a name=\"hcb594d198-902a-432c-8d28-ea20170b601a\"> </a><div style=\"display: inline-block; background-color: #d9e0e7; padding: 6px; margin: 4px; border: 1px solid #8da1b4; border-radius: 5px; line-height: 60%\"><p style=\"margin-bottom: 0px\"/><p style=\"margin-bottom: 0px\">Profile: <a href=\"StructureDefinition-composition-eu-eps.html\">Composition (EPS)</a></p></div><p><b>identifier</b>: <code>urn:oid:2.16.840.1.113883.2.51.999</code>/9cadb9ef-28e4-4928-81a7-a53759bb3d2a</p><p><b>status</b>: Final</p><p><b>type</b>: <span title=\"Codes:{http://loinc.org 60591-5}\">Patient summary Document</span></p><p><b>date</b>: 2025-08-31 17:37:54+0000</p><p><b>author</b>: <a href=\"Bundle-Instance-Bundle-77013a3f-bd32-4284-a08f-77750c8705bf.html#urn-uuid-79184585-4a33-414a-9835-bd9f7882f61c\">PractitionerRole</a></p><p><b>title</b>: European Patient Summary</p><p><b>confidentiality</b>: normal</p><p><b>custodian</b>: <a href=\"Bundle-Instance-Bundle-77013a3f-bd32-4284-a08f-77750c8705bf.html#urn-uuid-d75ea22c-7399-427b-a2a9-7b752811e481\">Organization Medisch Centrum</a></p></div>"},"identifier":{"system":"urn:oid:2.16.840.1.113883.2.51.999","value":"9cadb9ef-28e4-4928-81a7-a53759bb3d2a","assigner":{"display":"HL7 Europe"}},"status":"final","type":{"coding":[{"system":"http://loinc.org","code":"60591-5","display":"Patient summary Document"}],"text":"Patient summary Document"},"subject":{"reference":"urn:uuid:0608e4bf-c598-48e0-ae7b-20e52fa2158f"},"date":"2025-08-31T17:37:54Z","author":[{"reference":"urn:uuid:79184585-4a33-414a-9835-bd9f7882f61c"}],"title":"European Patient Summary","confidentiality":"N","custodian":{"reference":"urn:uuid:d75ea22c-7399-427b-a2a9-7b752811e481"},"section":[{"title":"Problem list","code":{"coding":[{"system":"http://loinc.org","code":"11450-4","display":"Problem list - Reported"}]},"text":{"status":"generated","div":"<div xmlns=\"http://www.w3.org/1999/xhtml\"><table class=\"hl7__ips\"><tr><th>Condition</th><th>Onset Date</th><th>Status</th></tr><tr><td>Chronic congestive heart failure</td><td><span class=\"nb\">2025-01-19</span></td><td>active</td></tr><tr><td>Ischemic heart disease</td><td><span class=\"nb\">2020-03-07</span></td><td>active</td></tr><tr><td>Acute non-ST segment elevation myocardial infarction</td><td><span class=\"nb\">1997-03-26</span></td><td>active</td></tr><tr><td>Prediabetes</td><td><span class=\"nb\">1967-02-18</span></td><td>active</td></tr><tr><td>Anemia</td><td><span class=\"nb\">1967-02-18</span></td><td>active</td></tr></table></div>"},"entry":[{"reference":"urn:uuid:3b688e89-4527-4567-b2da-dc7f9efc689f"},{"reference":"urn:uuid:0181377c-529f-4c83-aa4a-54ad542836da"},{"reference":"urn:uuid:7f0f7f8f-d3d3-4a84-a51b-2148049c294b"},{"reference":"urn:uuid:afd31bbf-774a-4782-b1a7-0303029ae2f7"},{"reference":"urn:uuid:51d26637-8aa4-4c80-b454-da9553f25806"}]},{"title":"History of Past Illness","code":{"coding":[{"system":"http://loinc.org","code":"11348-0","display":"History of Past illness Narrative"}]},"text":{"status":"generated","div":"<div xmlns=\"http://www.w3.org/1999/xhtml\"><table class=\"hl7__ips\"><tr><th>Condition</th><th>Period</th><th>Status</th></tr><tr><td><span class=\"grayedout\">Acute bronchitis</span></td><td><span class=\"nb\">2019-04-04 – 2019-04-22</span></td><td><span class=\"grayedout\">inactive</span></td></tr><tr><td><span class=\"grayedout\">Acute bronchitis</span></td><td><span class=\"nb\">2018-04-28 – 2018-05-07</span></td><td><span class=\"grayedout\">inactive</span></td></tr></table></div>"},"entry":[{"reference":"urn:uuid:a96f03a7-72f3-4b31-9016-f0c1679bc9f9"},{"reference":"urn:uuid:8c83b79e-237b-4a0a-9106-711ea83b9b5c"}]},{"title":"Medication list","code":{"coding":[{"system":"http://loinc.org","code":"10160-0","display":"History of Medication use Narrative"}]},"text":{"status":"generated","div":"<div xmlns=\"http://www.w3.org/1999/xhtml\"><table class=\"hl7__ips\"><tr><th>Medication</th><th>Since</th><th>Form</th><th>Dosage</th><th>Reason</th></tr><tr><td>Carvedilol 25 mg oral tablet</td><td><span class=\"nb\">2025-04-05</span></td><td>Oral tablet</td><td>1 tablet (25 mg) twice daily</td><td>Chronic congestive heart failure (disorder)</td></tr><tr><td>Furosemide 40 mg oral tablet</td><td><span class=\"nb\">2025-04-05</span></td><td>Oral tablet</td><td>1 tablet (40 mg) by mouth once daily</td><td>Chronic congestive heart failure (disorder)</td></tr><tr><td>Clopidogrel (as clopidogrel bisulfate) 75 mg oral tablet</td><td><span class=\"nb\">2020-03-14</span></td><td>Oral tablet</td><td>1 tablet (75 mg) by mouth once daily</td><td/></tr><tr><td>Simvastatin 20 mg oral tablet</td><td><span class=\"nb\">2020-03-14</span></td><td>Oral tablet</td><td>1 tablet (20 mg) by mouth once daily</td><td/></tr><tr><td>Nitroglycerin 400 microgram/actuation sublingual spray</td><td><span class=\"nb\">2020-03-14</span></td><td>Sublingual spray</td><td>400 micrograms (1 spray) sublingually as needed for chest pain, may repeat every 5 minutes as needed, up to 3 sprays in 15 minutes</td><td/></tr><tr><td>Metoprolol tartrate (as metoprolol succinate) 100 mg prolonged-release oral tablet</td><td><span class=\"nb\">2020-03-14</span></td><td>Prolonged-release oral tablet</td><td>1 tablet (100 mg) once daily</td><td/></tr><tr><td>Carvedilol 12.5 mg oral tablet</td><td><span class=\"nb\">1997-03-27</span></td><td>Oral tablet</td><td>1 tablet (12.5 mg) by mouth twice daily</td><td/></tr><tr><td>aspirin 81 MG Oral Tablet</td><td><span class=\"nb\">1997-03-27</span></td><td/><td>1 tablet (81 mg) by mouth once daily</td><td/></tr><tr><td>Lisinopril 5 mg oral tablet</td><td><span class=\"nb\">1997-03-27</span></td><td>Oral tablet</td><td>1 tablet (5 mg) by mouth once daily</td><td/></tr><tr><td>pravastatin sodium 80 MG Oral Tablet</td><td><span class=\"nb\">1997-03-27</span></td><td/><td>1 tablet (80 mg) by mouth once daily</td><td/></tr></table></div>"},"entry":[{"reference":"urn:uuid:cd5561ce-b4bd-47c9-a53f-472dd5fc07e1"},{"reference":"urn:uuid:cdbdb72e-3be0-445d-b27f-11d23bf8a3a6"},{"reference":"urn:uuid:59fbe9ea-dd07-4d15-820e-79ff5d055d31"},{"reference":"urn:uuid:34176867-0a19-46e6-ace1-dafeedd393f4"},{"reference":"urn:uuid:3065ed7b-d691-4d04-88d5-5d2b1ae6ef42"},{"reference":"urn:uuid:8f062e47-7b01-47f0-a7c2-77623059a053"},{"reference":"urn:uuid:31aee52f-84e3-4551-9db7-27a43cdd9de8"},{"reference":"urn:uuid:f2cb9e25-0a08-4561-a922-794a7e6a5b14"},{"reference":"urn:uuid:f019369c-cc21-4c21-96a8-96d80ea3b63c"},{"reference":"urn:uuid:d776bef9-3a1c-4e7a-9b94-bf18b3a47f7c"}]},{"title":"Immunizations list","code":{"coding":[{"system":"http://loinc.org","code":"11369-6","display":"History of Immunization Narrative"}]},"text":{"status":"generated","div":"<div xmlns=\"http://www.w3.org/1999/xhtml\"><table class=\"hl7__ips\"><tr><th>Vaccine</th><th>Date</th></tr><tr><td>Influenza virus antigen only vaccine product</td><td><span class=\"nb\">2025-04-05</span></td></tr><tr><td>Clostridium tetani toxoid antigen adsorbed only vaccine product</td><td><span class=\"nb\">2022-03-19</span></td></tr><tr><td>SARS-CoV-2 mRNA vaccine</td><td><span class=\"nb\">2021-07-31</span></td></tr></table></div>"},"entry":[{"reference":"urn:uuid:de5454a4-1a41-44a6-b0fc-5911b1174b84"},{"reference":"urn:uuid:edbe2bd0-b7c5-4b4d-9105-b220def7ace4"},{"reference":"urn:uuid:3d4d58ab-ab28-4e5e-bbc0-f83630db0bed"}]},{"title":"Allergies and Intolerances","code":{"coding":[{"system":"http://loinc.org","code":"48765-2","display":"Allergies and adverse reactions Document"}]},"text":{"status":"generated","div":"<div xmlns=\"http://www.w3.org/1999/xhtml\"><table class=\"hl7__ips\"><tr><td>No known allergies or intolerances</td></tr></table></div>"},"entry":[{"reference":"urn:uuid:19bb5bae-0cc6-455d-8348-336e71fd68ab"}]},{"title":"Care Plan","code":{"coding":[{"system":"http://loinc.org","code":"18776-5","display":"Plan of care note"}]},"text":{"status":"generated","div":"<div xmlns=\"http://www.w3.org/1999/xhtml\"><table class=\"hl7__ips\"><tr><th>Immunization Recommendation</th><th>Due Date</th><th>Reason</th></tr><tr><td>Vaccine product containing only Influenza virus antigen (medicinal product)</td><td><span class=\"nb\">2025-10-01</span></td><td>Annual seasonal influenza vaccination</td></tr></table></div>"},"entry":[{"reference":"urn:uuid:2d3020e3-7b31-4584-a3bb-93b5bed128a9"},{"reference":"urn:uuid:a4a119a5-1e82-4a24-b4fd-d0eab6d1637a"},{"reference":"urn:uuid:6e541d32-9db0-4a4e-943d-5c493bf9349b"},{"reference":"urn:uuid:bad5bed8-bc00-45dd-915d-6653da15d88b"}]},{"title":"Vital Signs","code":{"coding":[{"system":"http://loinc.org","code":"8716-3","display":"Vital signs"}]},"text":{"status":"generated","div":"<div xmlns=\"http://www.w3.org/1999/xhtml\"><table class=\"hl7__ips\"><tr><th>Vital Signs</th><th>2025-04-05</th><th>2025-01-19</th></tr><tr><td>Body Height</td><td>167.9 cm</td><td>-</td></tr><tr><td>Pain severity - 0-10 verbal numeric rating [Score] - Reported</td><td>2 {score}</td><td>-</td></tr><tr><td>Body Weight</td><td>76.5 kg</td><td>76.5 kg</td></tr><tr><td>Body mass index (BMI) [Ratio]</td><td>27.1 kg/m2</td><td>-</td></tr><tr><td>Diastolic Blood Pressure</td><td>49 mm[Hg]</td><td>-</td></tr><tr><td>Systolic Blood Pressure</td><td>85 mm[Hg]</td><td>-</td></tr><tr><td>Heart rate</td><td>85 /min</td><td>-</td></tr><tr><td>Respiratory rate</td><td>15 /min</td><td>-</td></tr></table></div>"},"entry":[{"reference":"urn:uuid:1d8089a8-0cca-4787-824b-edbaa3688718"},{"reference":"urn:uuid:f0701a9c-2c16-4231-9059-4229a22d038a"},{"reference":"urn:uuid:a77dc7b4-cf7b-47d1-8a2f-731a38774ef8"},{"reference":"urn:uuid:4dc0e4d9-6305-43bc-a2e9-b40040089fc1"},{"reference":"urn:uuid:b30bcaf2-833f-4d85-9805-06559d098b72"},{"reference":"urn:uuid:c57b63c0-c827-4d24-810f-7afe76d37801"},{"reference":"urn:uuid:c9ec0c2b-e956-41fd-83b0-11ee3b907a2e"},{"reference":"urn:uuid:512ea2df-c7eb-47e2-a079-1315b3ee6005"},{"reference":"urn:uuid:520c737c-0693-4713-b653-7b4153cd0b8b"}]},{"title":"Relevant diagnostic tests/laboratory data","code":{"coding":[{"system":"http://loinc.org","code":"30954-2","display":"Relevant diagnostic tests/laboratory data note"}]},"text":{"status":"generated","div":"<div xmlns=\"http://www.w3.org/1999/xhtml\"><table class=\"hl7__ips\"><table class=\"hl7__ips\"><thead><tr><th>Recent Lab Observations</th><th>19 Jan 2025</th><th>Reference Range</th><th>Unit</th></tr></thead><tbody><tr><td>Natriuretic peptide.B prohormone N-Terminal [Mass/volume] in Serum or Plasma</td><td><strong>1114.1 H</strong></td><td>450 - 900</td><td>pg/mL</td></tr><tr><td>Leukocytes [#/volume] in Blood by Automated count</td><td><strong>10.7 H</strong></td><td>3.4 - 10.6</td><td>10*3/uL</td></tr><tr><td>Erythrocytes [#/volume] in Blood by Automated count</td><td>5.3</td><td>3.8 - 5.7</td><td>10*6/uL</td></tr><tr><td>Hemoglobin [Mass/volume] in Blood</td><td>12.3</td><td>12.1 - 15.5</td><td>g/dL</td></tr><tr><td>Hematocrit [Volume Fraction] of Blood by Automated count</td><td>36.3</td><td>36 - 48</td><td>%</td></tr><tr><td>MCV [Entitic volume] by Automated count</td><td>95.6</td><td>80 - 105</td><td>fL</td></tr><tr><td>MCH [Entitic mass] by Automated count</td><td><strong>26.8 L</strong></td><td>27 - 33</td><td>pg</td></tr><tr><td>MCHC [Mass/volume] by Automated count</td><td>33.5</td><td>31 - 35</td><td>g/dL</td></tr><tr><td>Erythrocyte distribution width [Ratio] by Automated count</td><td>12.5</td><td>11.5 - 15.5</td><td>%</td></tr><tr><td>Platelets [#/volume] in Blood by Automated count</td><td>219.4</td><td>157 - 415</td><td>10*3/uL</td></tr><tr><td>Glucose [Mass/volume] in Serum or Plasma</td><td><strong>64.2 L</strong></td><td>70 - 139</td><td>mg/dL</td></tr><tr><td>Urea nitrogen [Mass/volume] in Serum or Plasma</td><td>17.3</td><td>7 - 43</td><td>mg/dL</td></tr><tr><td>Creatinine [Mass/volume] in Serum or Plasma</td><td><strong>0.5 L</strong></td><td>0.6 - 1.1</td><td>mg/dL</td></tr><tr><td>Calcium [Mass/volume] in Serum or Plasma</td><td>8.6</td><td>8.6 - 10.4</td><td>mg/dL</td></tr><tr><td>Sodium [Moles/volume] in Serum or Plasma</td><td>138.8</td><td>135 - 145</td><td>mmol/L</td></tr><tr><td>Potassium [Moles/volume] in Serum or Plasma</td><td>3.7</td><td>3.5 - 5.1</td><td>mmol/L</td></tr><tr><td>Chloride [Moles/volume] in Serum or Plasma</td><td><strong>108.9 H</strong></td><td>98 - 108</td><td>mmol/L</td></tr><tr><td>Carbon dioxide, total [Moles/volume] in Serum or Plasma</td><td><strong>20.4 L</strong></td><td>22 - 29</td><td>mmol/L</td></tr><tr><td>Protein [Mass/volume] in Serum or Plasma</td><td>6.4</td><td>6 - 8.3</td><td>g/dL</td></tr><tr><td>Albumin [Mass/volume] in Serum or Plasma</td><td>4.7</td><td>3.5 - 5.5</td><td>g/dL</td></tr><tr><td>Bilirubin.total [Mass/volume] in Serum or Plasma</td><td>0.9</td><td>0.3 - 1.2</td><td>mg/dL</td></tr><tr><td>Alkaline phosphatase [Enzymatic activity/volume] in Serum or Plasma</td><td>63.9</td><td>32 - 150</td><td>U/L</td></tr><tr><td>Alanine aminotransferase [Enzymatic activity/volume] in Serum or Plasma</td><td>11.8</td><td>7 - 35</td><td>U/L</td></tr><tr><td>Aspartate aminotransferase [Enzymatic activity/volume] in Serum or Plasma</td><td>22.0</td><td>10 - 40</td><td>U/L</td></tr><tr><td>Magnesium [Mass/volume] in Serum or Plasma</td><td>1.7</td><td>1.6 - 2.3</td><td>mg/dL</td></tr><tr><td>Cholesterol [Mass/volume] in Serum or Plasma</td><td><strong>309.6 H</strong></td><td>130 - 200</td><td>mg/dL</td></tr><tr><td>Triglyceride [Mass/volume] in Serum or Plasma</td><td>104.4</td><td>0 - 150</td><td>mg/dL</td></tr><tr><td>Cholesterol in LDL [Mass/volume] in Serum or Plasma by Direct assay</td><td><strong>232.2 H</strong></td><td>0 - 130</td><td>mg/dL</td></tr><tr><td>Cholesterol in HDL [Mass/volume] in Serum or Plasma</td><td>56.5</td><td>40 - 100</td><td>mg/dL</td></tr><tr><td>Hemoglobin A1c/Hemoglobin.total in Blood</td><td>6.3</td><td>4.3 - 6.4</td><td>%</td></tr><tr><td>Troponin I.cardiac [Mass/volume] in Serum or Plasma by High sensitivity method</td><td>0.0</td><td>0 - 19.9</td><td>pg/mL</td></tr><tr><td>Ferritin [Mass/volume] in Serum or Plasma</td><td>59.0</td><td>15 - 150</td><td>ug/L</td></tr><tr><td>Iron [Mass/volume] in Serum or Plasma</td><td>140.8</td><td>50 - 170</td><td>ug/dL</td></tr><tr><td>Iron binding capacity [Mass/volume] in Serum or Plasma</td><td>405.1</td><td>250 - 450</td><td>ug/dL</td></tr><tr><td>Iron saturation [Mass Fraction] in Serum or Plasma</td><td>17.6</td><td>15 - 50</td><td>%</td></tr></tbody></table></table></div>"},"entry":[{"reference":"urn:uuid:e9533bc2-76e2-4bc8-97fe-c2140d52befc"},{"reference":"urn:uuid:df78f587-3b9f-41ee-8104-064ede5e7fdc"},{"reference":"urn:uuid:e39e1e3d-0f08-4539-8340-03eb15ad15da"},{"reference":"urn:uuid:3364293d-b62d-4e54-8912-399ac0e6c9fe"},{"reference":"urn:uuid:17994608-6847-4988-8be0-951e82d8403b"},{"reference":"urn:uuid:a155652d-3bf2-472f-adc1-fca7139f30d1"},{"reference":"urn:uuid:7e21e4b9-9f92-41e4-932f-cc7f0f11609a"},{"reference":"urn:uuid:948680dd-d2bf-4da4-b8a2-94f5e8455356"},{"reference":"urn:uuid:a245a5f4-ccf4-411e-9585-d877440de4e7"},{"reference":"urn:uuid:d128486a-1492-4870-9be6-5768630a1eb9"},{"reference":"urn:uuid:f96a0add-af9f-46a2-99e9-c0a13009d9ec"},{"reference":"urn:uuid:86fceae0-c00d-4170-b556-8df9a521f388"},{"reference":"urn:uuid:df9faa36-444b-4b2c-ae25-7cb2d5770355"},{"reference":"urn:uuid:68e4f4d5-4743-4e05-a4fb-f227d95b3b89"},{"reference":"urn:uuid:1afb033a-c3fd-4ca5-8cce-48ac85947b3e"},{"reference":"urn:uuid:8bf83f28-6ce5-4874-b48f-cdd3ee174353"},{"reference":"urn:uuid:7bca456b-f0c4-4ba9-a46b-4c3559c3844d"},{"reference":"urn:uuid:4b379c16-6c59-415f-9396-6f6ffd9477aa"},{"reference":"urn:uuid:fc37b351-b501-46a8-a5b5-d274430b36eb"},{"reference":"urn:uuid:7dcb7577-3b3e-4a4b-aabd-2b300c8dd319"},{"reference":"urn:uuid:6f126eb5-6246-41aa-b248-7f87eaf48e84"},{"reference":"urn:uuid:b70316e9-db94-4d2e-813d-d2856753200c"},{"reference":"urn:uuid:f19dfb3d-1ccd-4418-8ccb-753830040267"},{"reference":"urn:uuid:007cc089-b094-4486-a006-4e13fc16032f"},{"reference":"urn:uuid:3b43a539-a848-4bd0-93f4-e957215a70ee"},{"reference":"urn:uuid:056360b8-9df5-460b-b766-856f995a9ada"},{"reference":"urn:uuid:cd093baa-23bc-4333-8e05-2764e2d79abd"},{"reference":"urn:uuid:d1d4f181-5e97-48ec-8587-c5d3881f89f9"},{"reference":"urn:uuid:cb28ad1a-2c56-4f1b-9748-95f16bf47072"},{"reference":"urn:uuid:a9275aeb-6d41-47e1-959a-d9c37da52d98"},{"reference":"urn:uuid:ba6f4428-bc3d-4419-bdac-c864299363b8"},{"reference":"urn:uuid:05db95ab-5c0f-44df-bc6f-1ec1b1f9f24b"},{"reference":"urn:uuid:38ddafc6-d42f-4b9c-8f52-a30b5846e6b8"},{"reference":"urn:uuid:dd6e75e9-293b-4182-bf5c-64f64eb489fe"},{"reference":"urn:uuid:99091ab2-6e21-4800-80d5-e0102b819540"}]},{"title":"Device Use","code":{"coding":[{"system":"http://loinc.org","code":"46264-8","display":"History of medical device use"}]},"text":{"status":"generated","div":"<div xmlns=\"http://www.w3.org/1999/xhtml\"><table class=\"hl7__ips\"><tr><th>Device</th><th>Date (since)</th></tr><tr><td>Blood glucose meter (physical object)</td><td><span class=\"nb\">1967-02-18</span></td></tr></table></div>"},"entry":[{"reference":"urn:uuid:9abfe2ba-223a-4542-b07f-873bf45e5432"}]}]}},{"fullUrl":"urn:uuid:0608e4bf-c598-48e0-ae7b-20e52fa2158f","resource":{"resourceType":"Patient","id":"0608e4bf-c598-48e0-ae7b-20e52fa2158f","meta":{"profile":["http://hl7.eu/fhir/eps/StructureDefinition/patient-eu-eps"]},"text":{"status":"generated","div":"<div xmlns=\"http://www.w3.org/1999/xhtml\"><a name=\"Patient_0608e4bf-c598-48e0-ae7b-20e52fa2158f\"> </a><table class=\"hl7__ips\"><tr><td>Ida Exel</td><td>1944-04-22</td></tr></table></div>"},"identifier":[{"type":{"coding":[{"system":"http://terminology.hl7.org/CodeSystem/v2-0203","code":"JHN"}]},"system":"http://ec.europa.eu/identifier/eci","value":"9996-750988-8"},{"type":{"coding":[{"system":"http://terminology.hl7.org/CodeSystem/v2-0203","code":"MR"}]},"system":"http://local.setting.eu/identifier","value":"04bb1fe9-34e0-9cba-6b92-0f4d2c7d28d8"}],"name":[{"text":"Ida Exel","family":"Exel","given":["Ida"]}],"telecom":[{"system":"phone","value":"+31 06-51415326"}],"gender":"female","birthDate":"1944-04-22","address":[{"use":"home","type":"physical","line":["Molenwei 184"],"city":"Hoogkarspel","postalCode":"1616 SL","country":"Netherlands"}]}},{"fullUrl":"urn:uuid:79184585-4a33-414a-9835-bd9f7882f61c","resource":{"resourceType":"PractitionerRole","id":"79184585-4a33-414a-9835-bd9f7882f61c","meta":{"profile":["http://hl7.eu/fhir/base/StructureDefinition/practitionerRole-eu"]},"text":{"status":"generated","div":"<div xmlns=\"http://www.w3.org/1999/xhtml\"><a name=\"PractitionerRole_79184585-4a33-414a-9835-bd9f7882f61c\"> </a><p class=\"res-header-id\"><b>Generated Narrative: PractitionerRole 79184585-4a33-414a-9835-bd9f7882f61c</b></p><a name=\"79184585-4a33-414a-9835-bd9f7882f61c\"> </a><a name=\"hc79184585-4a33-414a-9835-bd9f7882f61c\"> </a><div style=\"display: inline-block; background-color: #d9e0e7; padding: 6px; margin: 4px; border: 1px solid #8da1b4; border-radius: 5px; line-height: 60%\"><p style=\"margin-bottom: 0px\"/><p style=\"margin-bottom: 0px\">Profile: <a href=\"https://build.fhir.org/ig/hl7-eu/base/StructureDefinition-practitionerRole-eu.html\">PractitionerRole (EU base)</a></p></div><p><b>practitioner</b>: <a href=\"Bundle-Instance-Bundle-77013a3f-bd32-4284-a08f-77750c8705bf.html#urn-uuid-c17eb147-e638-4a24-b63f-10676c593e45\">Practitioner Hel Ping </a></p><p><b>organization</b>: <a href=\"Bundle-Instance-Bundle-77013a3f-bd32-4284-a08f-77750c8705bf.html#urn-uuid-d75ea22c-7399-427b-a2a9-7b752811e481\">Organization Medisch Centrum</a></p></div>"},"practitioner":{"reference":"urn:uuid:c17eb147-e638-4a24-b63f-10676c593e45"},"organization":{"reference":"urn:uuid:d75ea22c-7399-427b-a2a9-7b752811e481"}}},{"fullUrl":"urn:uuid:c17eb147-e638-4a24-b63f-10676c593e45","resource":{"resourceType":"Practitioner","id":"c17eb147-e638-4a24-b63f-10676c593e45","meta":{"profile":["http://hl7.eu/fhir/base/StructureDefinition/practitioner-eu"]},"text":{"status":"generated","div":"<div xmlns=\"http://www.w3.org/1999/xhtml\"><a name=\"Practitioner_c17eb147-e638-4a24-b63f-10676c593e45\"> </a><p class=\"res-header-id\"><b>Generated Narrative: Practitioner c17eb147-e638-4a24-b63f-10676c593e45</b></p><a name=\"c17eb147-e638-4a24-b63f-10676c593e45\"> </a><a name=\"hcc17eb147-e638-4a24-b63f-10676c593e45\"> </a><div style=\"display: inline-block; background-color: #d9e0e7; padding: 6px; margin: 4px; border: 1px solid #8da1b4; border-radius: 5px; line-height: 60%\"><p style=\"margin-bottom: 0px\"/><p style=\"margin-bottom: 0px\">Profile: <a href=\"https://build.fhir.org/ig/hl7-eu/base/StructureDefinition-practitioner-eu.html\">Practitioner (EU base)</a></p></div><p><b>name</b>: Hel Ping </p></div>"},"name":[{"family":"Ping","given":["Hel"],"prefix":["Dr."]}]}},{"fullUrl":"urn:uuid:d75ea22c-7399-427b-a2a9-7b752811e481","resource":{"resourceType":"Organization","id":"d75ea22c-7399-427b-a2a9-7b752811e481","meta":{"profile":["http://hl7.eu/fhir/base/StructureDefinition/organization-eu"]},"text":{"status":"generated","div":"<div xmlns=\"http://www.w3.org/1999/xhtml\"><a name=\"Organization_d75ea22c-7399-427b-a2a9-7b752811e481\"> </a><p class=\"res-header-id\"><b>Generated Narrative: Organization d75ea22c-7399-427b-a2a9-7b752811e481</b></p><a name=\"d75ea22c-7399-427b-a2a9-7b752811e481\"> </a><a name=\"hcd75ea22c-7399-427b-a2a9-7b752811e481\"> </a><div style=\"display: inline-block; background-color: #d9e0e7; padding: 6px; margin: 4px; border: 1px solid #8da1b4; border-radius: 5px; line-height: 60%\"><p style=\"margin-bottom: 0px\"/><p style=\"margin-bottom: 0px\">Profile: <a href=\"https://build.fhir.org/ig/hl7-eu/base/StructureDefinition-organization-eu.html\">Organization (EU base)</a></p></div><p><b>identifier</b>: <code>urn:oid:2.16.840.1.113883.2.51.999</code>/4c45c331-c5af-4168-b31f-29234da5541f</p><p><b>name</b>: Medisch Centrum</p><p><b>address</b>: Hoofdstraat 25 Bovenkarspel 1611 AL Netherlands </p></div>"},"identifier":[{"system":"urn:oid:2.16.840.1.113883.2.51.999","value":"4c45c331-c5af-4168-b31f-29234da5541f","assigner":{"display":"HL7 Europe"}}],"name":"Medisch Centrum","address":[{"line":["Hoofdstraat 25"],"city":"Bovenkarspel","postalCode":"1611 AL","country":"Netherlands"}]}},{"fullUrl":"urn:uuid:3b688e89-4527-4567-b2da-dc7f9efc689f","resource":{"resourceType":"Condition","id":"3b688e89-4527-4567-b2da-dc7f9efc689f","meta":{"profile":["http://hl7.org/fhir/uv/ips/StructureDefinition/Condition-uv-ips"]},"text":{"status":"generated","div":"<div xmlns=\"http://www.w3.org/1999/xhtml\"><a name=\"Condition_3b688e89-4527-4567-b2da-dc7f9efc689f\"> </a><table class=\"hl7__ips\"><tr><td>Chronic congestive heart failure</td><td><span class=\"nb\">2025-01-19</span></td><td>active</td></tr></table></div>"},"clinicalStatus":{"coding":[{"system":"http://terminology.hl7.org/CodeSystem/condition-clinical","code":"active"}]},"category":[{"coding":[{"system":"http://terminology.hl7.org/CodeSystem/condition-category","code":"problem-list-item","display":"Problem List Item"}]}],"code":{"coding":[{"system":"http://snomed.info/sct","code":"88805009","display":"Chronic congestive heart failure (disorder)"}],"text":"Chronic congestive heart failure"},"subject":{"reference":"urn:uuid:0608e4bf-c598-48e0-ae7b-20e52fa2158f","display":"Ida Exel"},"onsetDateTime":"2025-01-19","asserter":{"reference":"urn:uuid:c17eb147-e638-4a24-b63f-10676c593e45","display":"Dr. Hel Ping"}}},{"fullUrl":"urn:uuid:0181377c-529f-4c83-aa4a-54ad542836da","resource":{"resourceType":"Condition","id":"0181377c-529f-4c83-aa4a-54ad542836da","meta":{"profile":["http://hl7.org/fhir/uv/ips/StructureDefinition/Condition-uv-ips"]},"text":{"status":"generated","div":"<div xmlns=\"http://www.w3.org/1999/xhtml\"><a name=\"Condition_0181377c-529f-4c83-aa4a-54ad542836da\"> </a><table class=\"hl7__ips\"><tr><td>Ischemic heart disease</td><td><span class=\"nb\">2020-03-07</span></td><td>active</td></tr></table></div>"},"clinicalStatus":{"coding":[{"system":"http://terminology.hl7.org/CodeSystem/condition-clinical","code":"active"}]},"category":[{"coding":[{"system":"http://terminology.hl7.org/CodeSystem/condition-category","code":"problem-list-item","display":"Problem List Item"}]}],"code":{"coding":[{"system":"http://snomed.info/sct","code":"414545008","display":"Ischemic heart disease (disorder)"}],"text":"Ischemic heart disease"},"subject":{"reference":"urn:uuid:0608e4bf-c598-48e0-ae7b-20e52fa2158f","display":"Ida Exel"},"onsetDateTime":"2020-03-07","asserter":{"reference":"urn:uuid:c17eb147-e638-4a24-b63f-10676c593e45","display":"Dr. Hel Ping"}}},{"fullUrl":"urn:uuid:7f0f7f8f-d3d3-4a84-a51b-2148049c294b","resource":{"resourceType":"Condition","id":"7f0f7f8f-d3d3-4a84-a51b-2148049c294b","meta":{"profile":["http://hl7.org/fhir/uv/ips/StructureDefinition/Condition-uv-ips"]},"text":{"status":"generated","div":"<div xmlns=\"http://www.w3.org/1999/xhtml\"><a name=\"Condition_7f0f7f8f-d3d3-4a84-a51b-2148049c294b\"> </a><table class=\"hl7__ips\"><tr><td>Acute non-ST segment elevation myocardial infarction</td><td><span class=\"nb\">1997-03-26</span></td><td>active</td></tr></table></div>"},"clinicalStatus":{"coding":[{"system":"http://terminology.hl7.org/CodeSystem/condition-clinical","code":"active"}]},"category":[{"coding":[{"system":"http://terminology.hl7.org/CodeSystem/condition-category","code":"problem-list-item","display":"Problem List Item"}]}],"code":{"coding":[{"system":"http://snomed.info/sct","code":"401314000","display":"Acute non-ST segment elevation myocardial infarction (disorder)"}],"text":"Acute non-ST segment elevation myocardial infarction"},"subject":{"reference":"urn:uuid:0608e4bf-c598-48e0-ae7b-20e52fa2158f","display":"Ida Exel"},"onsetDateTime":"1997-03-26","asserter":{"reference":"urn:uuid:c17eb147-e638-4a24-b63f-10676c593e45","display":"Dr. Hel Ping"}}},{"fullUrl":"urn:uuid:afd31bbf-774a-4782-b1a7-0303029ae2f7","resource":{"resourceType":"Condition","id":"afd31bbf-774a-4782-b1a7-0303029ae2f7","meta":{"profile":["http://hl7.org/fhir/uv/ips/StructureDefinition/Condition-uv-ips"]},"text":{"status":"generated","div":"<div xmlns=\"http://www.w3.org/1999/xhtml\"><a name=\"Condition_afd31bbf-774a-4782-b1a7-0303029ae2f7\"> </a><table class=\"hl7__ips\"><tr><td>Prediabetes</td><td><span class=\"nb\">1967-02-18</span></td><td>active</td></tr></table></div>"},"clinicalStatus":{"coding":[{"system":"http://terminology.hl7.org/CodeSystem/condition-clinical","code":"active"}]},"category":[{"coding":[{"system":"http://terminology.hl7.org/CodeSystem/condition-category","code":"problem-list-item","display":"Problem List Item"}]}],"code":{"coding":[{"system":"http://snomed.info/sct","code":"15777000","display":"Prediabetes (disorder)"}],"text":"Prediabetes"},"subject":{"reference":"urn:uuid:0608e4bf-c598-48e0-ae7b-20e52fa2158f","display":"Ida Exel"},"onsetDateTime":"1967-02-18","asserter":{"reference":"urn:uuid:c17eb147-e638-4a24-b63f-10676c593e45","display":"Dr. Hel Ping"}}},{"fullUrl":"urn:uuid:51d26637-8aa4-4c80-b454-da9553f25806","resource":{"resourceType":"Condition","id":"51d26637-8aa4-4c80-b454-da9553f25806","meta":{"profile":["http://hl7.org/fhir/uv/ips/StructureDefinition/Condition-uv-ips"]},"text":{"status":"generated","div":"<div xmlns=\"http://www.w3.org/1999/xhtml\"><a name=\"Condition_51d26637-8aa4-4c80-b454-da9553f25806\"> </a><table class=\"hl7__ips\"><tr><td>Anemia</td><td><span class=\"nb\">1967-02-18</span></td><td>active</td></tr></table></div>"},"clinicalStatus":{"coding":[{"system":"http://terminology.hl7.org/CodeSystem/condition-clinical","code":"active"}]},"category":[{"coding":[{"system":"http://terminology.hl7.org/CodeSystem/condition-category","code":"problem-list-item","display":"Problem List Item"}]}],"code":{"coding":[{"system":"http://snomed.info/sct","code":"271737000","display":"Anemia (disorder)"}],"text":"Anemia"},"subject":{"reference":"urn:uuid:0608e4bf-c598-48e0-ae7b-20e52fa2158f","display":"Ida Exel"},"onsetDateTime":"1967-02-18","asserter":{"reference":"urn:uuid:c17eb147-e638-4a24-b63f-10676c593e45","display":"Dr. Hel Ping"}}},{"fullUrl":"urn:uuid:a96f03a7-72f3-4b31-9016-f0c1679bc9f9","resource":{"resourceType":"Condition","id":"a96f03a7-72f3-4b31-9016-f0c1679bc9f9","meta":{"profile":["http://hl7.org/fhir/uv/ips/StructureDefinition/Condition-uv-ips"]},"text":{"status":"generated","div":"<div xmlns=\"http://www.w3.org/1999/xhtml\"><a name=\"Condition_a96f03a7-72f3-4b31-9016-f0c1679bc9f9\"> </a><table class=\"hl7__ips\"><tr><td><span class=\"grayedout\">Acute bronchitis</span></td><td><span class=\"nb\">2019-04-04 – 2019-04-22</span></td><td><span class=\"grayedout\">inactive</span></td></tr></table></div>"},"clinicalStatus":{"coding":[{"system":"http://terminology.hl7.org/CodeSystem/condition-clinical","code":"inactive"}]},"category":[{"coding":[{"system":"http://terminology.hl7.org/CodeSystem/condition-category","code":"problem-list-item","display":"Problem List Item"}]}],"code":{"coding":[{"system":"http://snomed.info/sct","code":"10509002","display":"Acute bronchitis (disorder)"}],"text":"Acute bronchitis"},"subject":{"reference":"urn:uuid:0608e4bf-c598-48e0-ae7b-20e52fa2158f","display":"Ida Exel"},"onsetDateTime":"2019-04-04","abatementDateTime":"2019-04-22","asserter":{"reference":"urn:uuid:c17eb147-e638-4a24-b63f-10676c593e45","display":"Dr. Hel Ping"}}},{"fullUrl":"urn:uuid:8c83b79e-237b-4a0a-9106-711ea83b9b5c","resource":{"resourceType":"Condition","id":"8c83b79e-237b-4a0a-9106-711ea83b9b5c","meta":{"profile":["http://hl7.org/fhir/uv/ips/StructureDefinition/Condition-uv-ips"]},"text":{"status":"generated","div":"<div xmlns=\"http://www.w3.org/1999/xhtml\"><a name=\"Condition_8c83b79e-237b-4a0a-9106-711ea83b9b5c\"> </a><table class=\"hl7__ips\"><tr><td><span class=\"grayedout\">Acute bronchitis</span></td><td><span class=\"nb\">2018-04-28 – 2018-05-07</span></td><td><span class=\"grayedout\">inactive</span></td></tr></table></div>"},"clinicalStatus":{"coding":[{"system":"http://terminology.hl7.org/CodeSystem/condition-clinical","code":"inactive"}]},"category":[{"coding":[{"system":"http://terminology.hl7.org/CodeSystem/condition-category","code":"problem-list-item","display":"Problem List Item"}]}],"code":{"coding":[{"system":"http://snomed.info/sct","code":"10509002","display":"Acute bronchitis (disorder)"}],"text":"Acute bronchitis"},"subject":{"reference":"urn:uuid:0608e4bf-c598-48e0-ae7b-20e52fa2158f","display":"Ida Exel"},"onsetDateTime":"2018-04-28","abatementDateTime":"2018-05-07","asserter":{"reference":"urn:uuid:c17eb147-e638-4a24-b63f-10676c593e45","display":"Dr. Hel Ping"}}},{"fullUrl":"urn:uuid:771ba0b6-60e8-4120-ba55-a138d987c0da","resource":{"resourceType":"Medication","id":"771ba0b6-60e8-4120-ba55-a138d987c0da","meta":{"profile":["http://hl7.eu/fhir/eps/StructureDefinition/Medication-eu-eps"]},"text":{"status":"generated","div":"<div xmlns=\"http://www.w3.org/1999/xhtml\"><a name=\"Medication_771ba0b6-60e8-4120-ba55-a138d987c0da\"> </a>Carvedilol 25 mg oral tablet, Oral tablet</div>"},"code":{"coding":[{"system":"http://www.nlm.nih.gov/research/umls/rxnorm","code":"200033","display":"carvedilol 25 MG Oral Tablet"},{"system":"http://snomed.info/sct","code":"318632005","display":"Product containing precisely carvedilol 25 milligram/1 each conventional release oral tablet (clinical drug)"}],"text":"Carvedilol 25 mg oral tablet"},"form":{"coding":[{"system":"http://snomed.info/sct","code":"421026006","display":"Oral tablet\n"}]},"ingredient":[{"itemCodeableConcept":{"coding":[{"system":"http://snomed.info/sct","code":"386870007","display":"Carvedilol"}]},"isActive":true}]}},{"fullUrl":"urn:uuid:cd5561ce-b4bd-47c9-a53f-472dd5fc07e1","resource":{"resourceType":"MedicationStatement","id":"cd5561ce-b4bd-47c9-a53f-472dd5fc07e1","meta":{"profile":["http://hl7.eu/fhir/eps/StructureDefinition/MedicationStatement-eu-eps"]},"text":{"status":"generated","div":"<div xmlns=\"http://www.w3.org/1999/xhtml\"><a name=\"MedicationStatement_cd5561ce-b4bd-47c9-a53f-472dd5fc07e1\"> </a><table class=\"hl7__ips\"><tr><td>Carvedilol 25 mg oral tablet</td><td><span class=\"nb\">2025-04-05</span></td><td>Oral tablet</td><td>1 tablet (25 mg) twice daily</td><td>Chronic congestive heart failure (disorder)</td></tr></table></div>"},"status":"active","medicationReference":{"reference":"urn:uuid:771ba0b6-60e8-4120-ba55-a138d987c0da","display":"Carvedilol 25 mg oral tablet"},"subject":{"reference":"urn:uuid:0608e4bf-c598-48e0-ae7b-20e52fa2158f","display":"Ida Exel"},"effectivePeriod":{"start":"2025-04-05"},"reasonCode":[{"coding":[{"system":"http://snomed.info/sct","code":"88805009","display":"Chronic congestive heart failure (disorder)"}]}],"dosage":[{"text":"1 tablet (25 mg) twice daily","timing":{"repeat":{"frequency":2,"period":1,"periodUnit":"d"}},"asNeededBoolean":false,"doseAndRate":[{"doseQuantity":{"value":1,"unit":"{tbl}","code":"{tbl}"}}]}]}},{"fullUrl":"urn:uuid:022993c0-c196-4c0d-b62d-abcdbb263f40","resource":{"resourceType":"Medication","id":"022993c0-c196-4c0d-b62d-abcdbb263f40","meta":{"profile":["http://hl7.eu/fhir/eps/StructureDefinition/Medication-eu-eps"]},"text":{"status":"generated","div":"<div xmlns=\"http://www.w3.org/1999/xhtml\"><a name=\"Medication_022993c0-c196-4c0d-b62d-abcdbb263f40\"> </a>Furosemide 40 mg oral tablet, Oral tablet</div>"},"code":{"coding":[{"system":"http://www.nlm.nih.gov/research/umls/rxnorm","code":"313988","display":"furosemide 40 MG Oral Tablet"},{"system":"http://snomed.info/sct","code":"317972000","display":"Product containing precisely furosemide 40 milligram/1 each conventional release oral tablet (clinical drug)"}],"text":"Furosemide 40 mg oral tablet"},"form":{"coding":[{"system":"http://snomed.info/sct","code":"421026006","display":"Oral tablet\n"}]},"ingredient":[{"itemCodeableConcept":{"coding":[{"system":"http://snomed.info/sct","code":"387475002","display":"Furosemide"}]},"isActive":true}]}},{"fullUrl":"urn:uuid:cdbdb72e-3be0-445d-b27f-11d23bf8a3a6","resource":{"resourceType":"MedicationStatement","id":"cdbdb72e-3be0-445d-b27f-11d23bf8a3a6","meta":{"profile":["http://hl7.eu/fhir/eps/StructureDefinition/MedicationStatement-eu-eps"]},"text":{"status":"generated","div":"<div xmlns=\"http://www.w3.org/1999/xhtml\"><a name=\"MedicationStatement_cdbdb72e-3be0-445d-b27f-11d23bf8a3a6\"> </a><table class=\"hl7__ips\"><tr><td>Furosemide 40 mg oral tablet</td><td><span class=\"nb\">2025-04-05</span></td><td>Oral tablet</td><td>1 tablet (40 mg) by mouth once daily</td><td>Chronic congestive heart failure (disorder)</td></tr></table></div>"},"status":"active","medicationReference":{"reference":"urn:uuid:022993c0-c196-4c0d-b62d-abcdbb263f40","display":"Furosemide 40 mg oral tablet"},"subject":{"reference":"urn:uuid:0608e4bf-c598-48e0-ae7b-20e52fa2158f","display":"Ida Exel"},"effectivePeriod":{"start":"2025-04-05"},"reasonCode":[{"coding":[{"system":"http://snomed.info/sct","code":"88805009","display":"Chronic congestive heart failure (disorder)"}]}],"dosage":[{"text":"1 tablet (40 mg) by mouth once daily","timing":{"repeat":{"frequency":1,"period":1,"periodUnit":"d"}},"asNeededBoolean":false,"doseAndRate":[{"doseQuantity":{"value":1,"unit":"{tbl}","code":"{tbl}"}}]}]}},{"fullUrl":"urn:uuid:2864cab3-4e35-410c-bc26-25aabad27c9d","resource":{"resourceType":"Medication","id":"2864cab3-4e35-410c-bc26-25aabad27c9d","meta":{"profile":["http://hl7.eu/fhir/eps/StructureDefinition/Medication-eu-eps"]},"text":{"status":"generated","div":"<div xmlns=\"http://www.w3.org/1999/xhtml\"><a name=\"Medication_2864cab3-4e35-410c-bc26-25aabad27c9d\"> </a>Clopidogrel (as clopidogrel bisulfate) 75 mg oral tablet, Oral tablet</div>"},"code":{"coding":[{"system":"http://www.nlm.nih.gov/research/umls/rxnorm","code":"309362","display":"clopidogrel 75 MG Oral Tablet"},{"system":"http://snomed.info/sct","code":"783586007","display":"Product containing precisely clopidogrel (as clopidogrel bisulfate) 75 milligram/1 each conventional release oral tablet (clinical drug)"}],"text":"Clopidogrel (as clopidogrel bisulfate) 75 mg oral tablet"},"form":{"coding":[{"system":"http://snomed.info/sct","code":"421026006","display":"Oral tablet\n"}]},"ingredient":[{"itemCodeableConcept":{"coding":[{"system":"http://snomed.info/sct","code":"412354008","display":"Clopidogrel bisulfate"}]},"isActive":true}]}},{"fullUrl":"urn:uuid:59fbe9ea-dd07-4d15-820e-79ff5d055d31","resource":{"resourceType":"MedicationStatement","id":"59fbe9ea-dd07-4d15-820e-79ff5d055d31","meta":{"profile":["http://hl7.eu/fhir/eps/StructureDefinition/MedicationStatement-eu-eps"]},"text":{"status":"generated","div":"<div xmlns=\"http://www.w3.org/1999/xhtml\"><a name=\"MedicationStatement_59fbe9ea-dd07-4d15-820e-79ff5d055d31\"> </a><table class=\"hl7__ips\"><tr><td>Clopidogrel (as clopidogrel bisulfate) 75 mg oral tablet</td><td><span class=\"nb\">2020-03-14</span></td><td>Oral tablet</td><td>1 tablet (75 mg) by mouth once daily</td><td/></tr></table></div>"},"status":"active","medicationReference":{"reference":"urn:uuid:2864cab3-4e35-410c-bc26-25aabad27c9d","display":"Clopidogrel (as clopidogrel bisulfate) 75 mg oral tablet"},"subject":{"reference":"urn:uuid:0608e4bf-c598-48e0-ae7b-20e52fa2158f","display":"Ida Exel"},"effectivePeriod":{"start":"2020-03-14"},"dosage":[{"text":"1 tablet (75 mg) by mouth once daily","timing":{"repeat":{"frequency":1,"period":1,"periodUnit":"d"}},"asNeededBoolean":false,"doseAndRate":[{"doseQuantity":{"value":1,"unit":"{tbl}","code":"{tbl}"}}]}]}},{"fullUrl":"urn:uuid:96bfa0a9-b2f9-408b-af91-7192f81a9997","resource":{"resourceType":"Medication","id":"96bfa0a9-b2f9-408b-af91-7192f81a9997","meta":{"profile":["http://hl7.eu/fhir/eps/StructureDefinition/Medication-eu-eps"]},"text":{"status":"generated","div":"<div xmlns=\"http://www.w3.org/1999/xhtml\"><a name=\"Medication_96bfa0a9-b2f9-408b-af91-7192f81a9997\"> </a>Simvastatin 20 mg oral tablet, Oral tablet</div>"},"code":{"coding":[{"system":"http://www.nlm.nih.gov/research/umls/rxnorm","code":"312961","display":"simvastatin 20 MG Oral Tablet"},{"system":"http://snomed.info/sct","code":"319997009","display":"Product containing precisely simvastatin 20 milligram/1 each conventional release oral tablet (clinical drug)"}],"text":"Simvastatin 20 mg oral tablet"},"form":{"coding":[{"system":"http://snomed.info/sct","code":"421026006","display":"Oral tablet\n"}]},"ingredient":[{"itemCodeableConcept":{"coding":[{"system":"http://snomed.info/sct","code":"387584000","display":"Simvastatin"}]},"isActive":true}]}},{"fullUrl":"urn:uuid:34176867-0a19-46e6-ace1-dafeedd393f4","resource":{"resourceType":"MedicationStatement","id":"34176867-0a19-46e6-ace1-dafeedd393f4","meta":{"profile":["http://hl7.eu/fhir/eps/StructureDefinition/MedicationStatement-eu-eps"]},"text":{"status":"generated","div":"<div xmlns=\"http://www.w3.org/1999/xhtml\"><a name=\"MedicationStatement_34176867-0a19-46e6-ace1-dafeedd393f4\"> </a><table class=\"hl7__ips\"><tr><td>Simvastatin 20 mg oral tablet</td><td><span class=\"nb\">2020-03-14</span></td><td>Oral tablet</td><td>1 tablet (20 mg) by mouth once daily</td><td/></tr></table></div>"},"status":"active","medicationReference":{"reference":"urn:uuid:96bfa0a9-b2f9-408b-af91-7192f81a9997","display":"Simvastatin 20 mg oral tablet"},"subject":{"reference":"urn:uuid:0608e4bf-c598-48e0-ae7b-20e52fa2158f","display":"Ida Exel"},"effectivePeriod":{"start":"2020-03-14"},"dosage":[{"text":"1 tablet (20 mg) by mouth once daily","timing":{"repeat":{"frequency":1,"period":1,"periodUnit":"d"}},"asNeededBoolean":false,"doseAndRate":[{"doseQuantity":{"value":1,"unit":"{tbl}","code":"{tbl}"}}]}]}},{"fullUrl":"urn:uuid:f25c9d95-2a9b-443a-aa35-635326c95a61","resource":{"resourceType":"Medication","id":"f25c9d95-2a9b-443a-aa35-635326c95a61","meta":{"profile":["http://hl7.eu/fhir/eps/StructureDefinition/Medication-eu-eps"]},"text":{"status":"generated","div":"<div xmlns=\"http://www.w3.org/1999/xhtml\"><a name=\"Medication_f25c9d95-2a9b-443a-aa35-635326c95a61\"> </a>Nitroglycerin 400 microgram/actuation sublingual spray, Sublingual spray</div>"},"code":{"coding":[{"system":"http://www.nlm.nih.gov/research/umls/rxnorm","code":"705129","display":"nitroglycerin 0.4 MG/ACTUAT Mucosal Spray"},{"system":"http://snomed.info/sct","code":"425176000","display":"Product containing precisely glyceryl trinitrate 400 microgram/1 actuation conventional release sublingual spray (clinical drug)"}],"text":"Nitroglycerin 400 microgram/actuation sublingual spray"},"form":{"coding":[{"system":"http://snomed.info/sct","code":"385074009","display":"Sublingual spray\n"}]},"ingredient":[{"itemCodeableConcept":{"coding":[{"system":"http://snomed.info/sct","code":"387404004","display":"Glyceryl trinitrate"}]},"isActive":true}]}},{"fullUrl":"urn:uuid:3065ed7b-d691-4d04-88d5-5d2b1ae6ef42","resource":{"resourceType":"MedicationStatement","id":"3065ed7b-d691-4d04-88d5-5d2b1ae6ef42","meta":{"profile":["http://hl7.eu/fhir/eps/StructureDefinition/MedicationStatement-eu-eps"]},"text":{"status":"generated","div":"<div xmlns=\"http://www.w3.org/1999/xhtml\"><a name=\"MedicationStatement_3065ed7b-d691-4d04-88d5-5d2b1ae6ef42\"> </a><table class=\"hl7__ips\"><tr><td>Nitroglycerin 400 microgram/actuation sublingual spray</td><td><span class=\"nb\">2020-03-14</span></td><td>Sublingual spray</td><td>400 micrograms (1 spray) sublingually as needed for chest pain, may repeat every 5 minutes as needed, up to 3 sprays in 15 minutes</td><td/></tr></table></div>"},"status":"active","medicationReference":{"reference":"urn:uuid:f25c9d95-2a9b-443a-aa35-635326c95a61","display":"Nitroglycerin 400 microgram/actuation sublingual spray"},"subject":{"reference":"urn:uuid:0608e4bf-c598-48e0-ae7b-20e52fa2158f","display":"Ida Exel"},"effectivePeriod":{"start":"2020-03-14"},"dosage":[{"text":"400 micrograms (1 spray) sublingually as needed for chest pain, may repeat every 5 minutes as needed, up to 3 sprays in 15 minutes","timing":{"repeat":{"frequency":1,"period":5,"periodUnit":"min"}},"asNeededBoolean":true,"doseAndRate":[{"doseQuantity":{"value":400,"unit":"microgram","code":"ug"}}]}]}},{"fullUrl":"urn:uuid:ad830e0f-a543-4319-801d-8ab9b1be9ce7","resource":{"resourceType":"Medication","id":"ad830e0f-a543-4319-801d-8ab9b1be9ce7","meta":{"profile":["http://hl7.eu/fhir/eps/StructureDefinition/Medication-eu-eps"]},"text":{"status":"generated","div":"<div xmlns=\"http://www.w3.org/1999/xhtml\"><a name=\"Medication_ad830e0f-a543-4319-801d-8ab9b1be9ce7\"> </a>Metoprolol tartrate (as metoprolol succinate) 100 mg prolonged-release oral tablet, Prolonged-release oral tablet</div>"},"code":{"coding":[{"system":"http://www.nlm.nih.gov/research/umls/rxnorm","code":"866412","display":"24 HR metoprolol succinate 100 MG Extended Release Oral Tablet"},{"system":"http://snomed.info/sct","code":"879980009","display":"Product containing precisely metoprolol tartrate (as metoprolol succinate) 100 milligram/1 each prolonged-release oral tablet (clinical drug)"}],"text":"Metoprolol tartrate (as metoprolol succinate) 100 mg prolonged-release oral tablet"},"form":{"coding":[{"system":"http://snomed.info/sct","code":"385060002","display":"Prolonged-release oral tablet\n"}]},"ingredient":[{"itemCodeableConcept":{"coding":[{"system":"http://snomed.info/sct","code":"412432007","display":"Metoprolol succinate"}]},"isActive":true}]}},{"fullUrl":"urn:uuid:8f062e47-7b01-47f0-a7c2-77623059a053","resource":{"resourceType":"MedicationStatement","id":"8f062e47-7b01-47f0-a7c2-77623059a053","meta":{"profile":["http://hl7.eu/fhir/eps/StructureDefinition/MedicationStatement-eu-eps"]},"text":{"status":"generated","div":"<div xmlns=\"http://www.w3.org/1999/xhtml\"><a name=\"MedicationStatement_8f062e47-7b01-47f0-a7c2-77623059a053\"> </a><table class=\"hl7__ips\"><tr><td>Metoprolol tartrate (as metoprolol succinate) 100 mg prolonged-release oral tablet</td><td><span class=\"nb\">2020-03-14</span></td><td>Prolonged-release oral tablet</td><td>1 tablet (100 mg) once daily</td><td/></tr></table></div>"},"status":"active","medicationReference":{"reference":"urn:uuid:ad830e0f-a543-4319-801d-8ab9b1be9ce7","display":"Metoprolol tartrate (as metoprolol succinate) 100 mg prolonged-release oral tablet"},"subject":{"reference":"urn:uuid:0608e4bf-c598-48e0-ae7b-20e52fa2158f","display":"Ida Exel"},"effectivePeriod":{"start":"2020-03-14"},"dosage":[{"text":"1 tablet (100 mg) once daily","timing":{"repeat":{"frequency":1,"period":1,"periodUnit":"d"}},"asNeededBoolean":false,"doseAndRate":[{"doseQuantity":{"value":1,"unit":"{tbl}","code":"{tbl}"}}]}]}},{"fullUrl":"urn:uuid:65239341-09ca-4215-86f3-585641b24cae","resource":{"resourceType":"Medication","id":"65239341-09ca-4215-86f3-585641b24cae","meta":{"profile":["http://hl7.eu/fhir/eps/StructureDefinition/Medication-eu-eps"]},"text":{"status":"generated","div":"<div xmlns=\"http://www.w3.org/1999/xhtml\"><a name=\"Medication_65239341-09ca-4215-86f3-585641b24cae\"> </a>Carvedilol 12.5 mg oral tablet, Oral tablet</div>"},"code":{"coding":[{"system":"http://www.nlm.nih.gov/research/umls/rxnorm","code":"200032","display":"carvedilol 12.5 MG Oral Tablet"},{"system":"http://snomed.info/sct","code":"318631003","display":"Product containing precisely carvedilol 12.5 milligram/1 each conventional release oral tablet (clinical drug)"}],"text":"Carvedilol 12.5 mg oral tablet"},"form":{"coding":[{"system":"http://snomed.info/sct","code":"421026006","display":"Oral tablet\n"}]},"ingredient":[{"itemCodeableConcept":{"coding":[{"system":"http://snomed.info/sct","code":"386870007","display":"Carvedilol"}]},"isActive":true}]}},{"fullUrl":"urn:uuid:31aee52f-84e3-4551-9db7-27a43cdd9de8","resource":{"resourceType":"MedicationStatement","id":"31aee52f-84e3-4551-9db7-27a43cdd9de8","meta":{"profile":["http://hl7.eu/fhir/eps/StructureDefinition/MedicationStatement-eu-eps"]},"text":{"status":"generated","div":"<div xmlns=\"http://www.w3.org/1999/xhtml\"><a name=\"MedicationStatement_31aee52f-84e3-4551-9db7-27a43cdd9de8\"> </a><table class=\"hl7__ips\"><tr><td>Carvedilol 12.5 mg oral tablet</td><td><span class=\"nb\">1997-03-27</span></td><td>Oral tablet</td><td>1 tablet (12.5 mg) by mouth twice daily</td><td/></tr></table></div>"},"status":"active","medicationReference":{"reference":"urn:uuid:65239341-09ca-4215-86f3-585641b24cae","display":"Carvedilol 12.5 mg oral tablet"},"subject":{"reference":"urn:uuid:0608e4bf-c598-48e0-ae7b-20e52fa2158f","display":"Ida Exel"},"effectivePeriod":{"start":"1997-03-27"},"dosage":[{"text":"1 tablet (12.5 mg) by mouth twice daily","timing":{"repeat":{"frequency":2,"period":1,"periodUnit":"d"}},"asNeededBoolean":false,"doseAndRate":[{"doseQuantity":{"value":1,"unit":"{tbl}","code":"{tbl}"}}]}]}},{"fullUrl":"urn:uuid:2c154575-af0d-4c39-8c22-973125e693f6","resource":{"resourceType":"Medication","id":"2c154575-af0d-4c39-8c22-973125e693f6","meta":{"profile":["http://hl7.eu/fhir/eps/StructureDefinition/Medication-eu-eps"]},"text":{"status":"generated","div":"<div xmlns=\"http://www.w3.org/1999/xhtml\"><a name=\"Medication_2c154575-af0d-4c39-8c22-973125e693f6\"> </a>aspirin 81 MG Oral Tablet,</div>"},"code":{"coding":[{"system":"http://www.nlm.nih.gov/research/umls/rxnorm","code":"243670","display":"aspirin 81 MG Oral Tablet"}],"text":"aspirin 81 MG Oral Tablet"}}},{"fullUrl":"urn:uuid:f2cb9e25-0a08-4561-a922-794a7e6a5b14","resource":{"resourceType":"MedicationStatement","id":"f2cb9e25-0a08-4561-a922-794a7e6a5b14","meta":{"profile":["http://hl7.eu/fhir/eps/StructureDefinition/MedicationStatement-eu-eps"]},"text":{"status":"generated","div":"<div xmlns=\"http://www.w3.org/1999/xhtml\"><a name=\"MedicationStatement_f2cb9e25-0a08-4561-a922-794a7e6a5b14\"> </a><table class=\"hl7__ips\"><tr><td>aspirin 81 MG Oral Tablet</td><td><span class=\"nb\">1997-03-27</span></td><td/><td>1 tablet (81 mg) by mouth once daily</td><td/></tr></table></div>"},"status":"active","medicationReference":{"reference":"urn:uuid:2c154575-af0d-4c39-8c22-973125e693f6","display":"aspirin 81 MG Oral Tablet"},"subject":{"reference":"urn:uuid:0608e4bf-c598-48e0-ae7b-20e52fa2158f","display":"Ida Exel"},"effectivePeriod":{"start":"1997-03-27"},"dosage":[{"text":"1 tablet (81 mg) by mouth once daily","timing":{"repeat":{"frequency":1,"period":1,"periodUnit":"d"}},"asNeededBoolean":false,"doseAndRate":[{"doseQuantity":{"value":1,"unit":"{tbl}","code":"{tbl}"}}]}]}},{"fullUrl":"urn:uuid:b826254f-7062-45af-8d37-a5c7d7fa2c3f","resource":{"resourceType":"Medication","id":"b826254f-7062-45af-8d37-a5c7d7fa2c3f","meta":{"profile":["http://hl7.eu/fhir/eps/StructureDefinition/Medication-eu-eps"]},"text":{"status":"generated","div":"<div xmlns=\"http://www.w3.org/1999/xhtml\"><a name=\"Medication_b826254f-7062-45af-8d37-a5c7d7fa2c3f\"> </a>Lisinopril 5 mg oral tablet, Oral tablet</div>"},"code":{"coding":[{"system":"http://www.nlm.nih.gov/research/umls/rxnorm","code":"311354","display":"lisinopril 5 MG Oral Tablet"},{"system":"http://snomed.info/sct","code":"318858008","display":"Product containing precisely lisinopril 5 milligram/1 each conventional release oral tablet (clinical drug)"}],"text":"Lisinopril 5 mg oral tablet"},"form":{"coding":[{"system":"http://snomed.info/sct","code":"421026006","display":"Oral tablet\n"}]},"ingredient":[{"itemCodeableConcept":{"coding":[{"system":"http://snomed.info/sct","code":"386873009","display":"Lisinopril"}]},"isActive":true}]}},{"fullUrl":"urn:uuid:f019369c-cc21-4c21-96a8-96d80ea3b63c","resource":{"resourceType":"MedicationStatement","id":"f019369c-cc21-4c21-96a8-96d80ea3b63c","meta":{"profile":["http://hl7.eu/fhir/eps/StructureDefinition/MedicationStatement-eu-eps"]},"text":{"status":"generated","div":"<div xmlns=\"http://www.w3.org/1999/xhtml\"><a name=\"MedicationStatement_f019369c-cc21-4c21-96a8-96d80ea3b63c\"> </a><table class=\"hl7__ips\"><tr><td>Lisinopril 5 mg oral tablet</td><td><span class=\"nb\">1997-03-27</span></td><td>Oral tablet</td><td>1 tablet (5 mg) by mouth once daily</td><td/></tr></table></div>"},"status":"active","medicationReference":{"reference":"urn:uuid:b826254f-7062-45af-8d37-a5c7d7fa2c3f","display":"Lisinopril 5 mg oral tablet"},"subject":{"reference":"urn:uuid:0608e4bf-c598-48e0-ae7b-20e52fa2158f","display":"Ida Exel"},"effectivePeriod":{"start":"1997-03-27"},"dosage":[{"text":"1 tablet (5 mg) by mouth once daily","timing":{"repeat":{"frequency":1,"period":1,"periodUnit":"d"}},"asNeededBoolean":false,"doseAndRate":[{"doseQuantity":{"value":1,"unit":"{tbl}","code":"{tbl}"}}]}]}},{"fullUrl":"urn:uuid:92ea3b4b-f5d1-49cc-9cbd-6929507f1b1c","resource":{"resourceType":"Medication","id":"92ea3b4b-f5d1-49cc-9cbd-6929507f1b1c","meta":{"profile":["http://hl7.eu/fhir/eps/StructureDefinition/Medication-eu-eps"]},"text":{"status":"generated","div":"<div xmlns=\"http://www.w3.org/1999/xhtml\"><a name=\"Medication_92ea3b4b-f5d1-49cc-9cbd-6929507f1b1c\"> </a>pravastatin sodium 80 MG Oral Tablet,</div>"},"code":{"coding":[{"system":"http://www.nlm.nih.gov/research/umls/rxnorm","code":"904481","display":"pravastatin sodium 80 MG Oral Tablet"}],"text":"pravastatin sodium 80 MG Oral Tablet"}}},{"fullUrl":"urn:uuid:d776bef9-3a1c-4e7a-9b94-bf18b3a47f7c","resource":{"resourceType":"MedicationStatement","id":"d776bef9-3a1c-4e7a-9b94-bf18b3a47f7c","meta":{"profile":["http://hl7.eu/fhir/eps/StructureDefinition/MedicationStatement-eu-eps"]},"text":{"status":"generated","div":"<div xmlns=\"http://www.w3.org/1999/xhtml\"><a name=\"MedicationStatement_d776bef9-3a1c-4e7a-9b94-bf18b3a47f7c\"> </a><table class=\"hl7__ips\"><tr><td>pravastatin sodium 80 MG Oral Tablet</td><td><span class=\"nb\">1997-03-27</span></td><td/><td>1 tablet (80 mg) by mouth once daily</td><td/></tr></table></div>"},"status":"active","medicationReference":{"reference":"urn:uuid:92ea3b4b-f5d1-49cc-9cbd-6929507f1b1c","display":"pravastatin sodium 80 MG Oral Tablet"},"subject":{"reference":"urn:uuid:0608e4bf-c598-48e0-ae7b-20e52fa2158f","display":"Ida Exel"},"effectivePeriod":{"start":"1997-03-27"},"dosage":[{"text":"1 tablet (80 mg) by mouth once daily","timing":{"repeat":{"frequency":1,"period":1,"periodUnit":"d"}},"asNeededBoolean":false,"doseAndRate":[{"doseQuantity":{"value":1,"unit":"{tbl}","code":"{tbl}"}}]}]}},{"fullUrl":"urn:uuid:de5454a4-1a41-44a6-b0fc-5911b1174b84","resource":{"resourceType":"Immunization","id":"de5454a4-1a41-44a6-b0fc-5911b1174b84","meta":{"profile":["http://hl7.org/fhir/uv/ips/StructureDefinition/Immunization-uv-ips"]},"text":{"status":"generated","div":"<div xmlns=\"http://www.w3.org/1999/xhtml\"><a name=\"Immunization_de5454a4-1a41-44a6-b0fc-5911b1174b84\"> </a><table class=\"hl7__ips\"><tr><td>Influenza virus antigen only vaccine product</td><td><span class=\"nb\">2025-04-05</span></td></tr></table></div>"},"status":"completed","vaccineCode":{"coding":[{"system":"http://snomed.info/sct","code":"1181000221105","display":"Vaccine product containing only Influenza virus antigen (medicinal product)"},{"system":"http://www.whocc.no/atc","code":"J07BB02","display":"influenza, inactivated, split virus or surface antigen"},{"system":"http://hl7.org/fhir/sid/cvx","code":"140","display":"Influenza  seasonal  injectable  preservative free"}],"text":"Influenza virus antigen only vaccine product"},"patient":{"reference":"urn:uuid:0608e4bf-c598-48e0-ae7b-20e52fa2158f","display":"Ida Exel"},"occurrenceDateTime":"2025-04-05","lotNumber":"ZE-4DpyB","expirationDate":"2026-01-10","site":{"coding":[{"system":"http://snomed.info/sct","code":"244979005","display":"Entire muscle of upper arm"}],"text":"Entire muscle of upper arm"},"route":{"coding":[{"system":"http://snomed.info/sct","code":"78421000","display":"Intramuscular route"}],"text":"Intramuscular route"}}},{"fullUrl":"urn:uuid:edbe2bd0-b7c5-4b4d-9105-b220def7ace4","resource":{"resourceType":"Immunization","id":"edbe2bd0-b7c5-4b4d-9105-b220def7ace4","meta":{"profile":["http://hl7.org/fhir/uv/ips/StructureDefinition/Immunization-uv-ips"]},"text":{"status":"generated","div":"<div xmlns=\"http://www.w3.org/1999/xhtml\"><a name=\"Immunization_edbe2bd0-b7c5-4b4d-9105-b220def7ace4\"> </a><table class=\"hl7__ips\"><tr><td>Clostridium tetani toxoid antigen adsorbed only vaccine product</td><td><span class=\"nb\">2022-03-19</span></td></tr></table></div>"},"status":"completed","vaccineCode":{"coding":[{"system":"http://snomed.info/sct","code":"777725002","display":"Vaccine product containing only Clostridium tetani toxoid antigen adsorbed (medicinal product)"},{"system":"http://www.whocc.no/atc","code":"J07AM51","display":"tetanus toxoid, combinations with diphtheria toxoid"},{"system":"http://hl7.org/fhir/sid/cvx","code":"113","display":"Td (adult)  5 Lf tetanus toxoid  preservative free  adsorbed"}],"text":"Clostridium tetani toxoid antigen adsorbed only vaccine product"},"patient":{"reference":"urn:uuid:0608e4bf-c598-48e0-ae7b-20e52fa2158f","display":"Ida Exel"},"occurrenceDateTime":"2022-03-19","lotNumber":"YQ-j1uNvVOUe","expirationDate":"2023-02-12","site":{"coding":[{"system":"http://snomed.info/sct","code":"244979005","display":"Entire muscle of upper arm"}],"text":"Entire muscle of upper arm"},"route":{"coding":[{"system":"http://snomed.info/sct","code":"78421000","display":"Intramuscular route"}],"text":"Intramuscular route"}}},{"fullUrl":"urn:uuid:3d4d58ab-ab28-4e5e-bbc0-f83630db0bed","resource":{"resourceType":"Immunization","id":"3d4d58ab-ab28-4e5e-bbc0-f83630db0bed","meta":{"profile":["http://hl7.org/fhir/uv/ips/StructureDefinition/Immunization-uv-ips"]},"text":{"status":"generated","div":"<div xmlns=\"http://www.w3.org/1999/xhtml\"><a name=\"Immunization_3d4d58ab-ab28-4e5e-bbc0-f83630db0bed\"> </a><table class=\"hl7__ips\"><tr><td>SARS-CoV-2 mRNA vaccine</td><td><span class=\"nb\">2021-07-31</span></td></tr></table></div>"},"status":"completed","vaccineCode":{"coding":[{"system":"http://snomed.info/sct","code":"1119349007","display":"Vaccine product containing only severe acute respiratory syndrome coronavirus 2 messenger ribonucleic acid (medicinal product)"},{"system":"http://www.whocc.no/atc","code":"J07BX03","display":"COVID-19 mRNA vaccines"},{"system":"http://hl7.org/fhir/sid/cvx","code":"207","display":"SARS-COV-2 (COVID-19) vaccine  mRNA  spike protein  LNP  preservative free  100 mcg/0.5mL dose"}],"text":"SARS-CoV-2 mRNA vaccine"},"patient":{"reference":"urn:uuid:0608e4bf-c598-48e0-ae7b-20e52fa2158f","display":"Ida Exel"},"occurrenceDateTime":"2021-07-31","lotNumber":"KH-n5qP0z3oN","expirationDate":"2022-03-08","site":{"coding":[{"system":"http://snomed.info/sct","code":"244979005","display":"Entire muscle of upper arm"}],"text":"Entire muscle of upper arm"},"route":{"coding":[{"system":"http://snomed.info/sct","code":"78421000","display":"Intramuscular route"}],"text":"Intramuscular route"}}},{"fullUrl":"urn:uuid:19bb5bae-0cc6-455d-8348-336e71fd68ab","resource":{"resourceType":"AllergyIntolerance","id":"19bb5bae-0cc6-455d-8348-336e71fd68ab","meta":{"profile":["http://hl7.eu/fhir/eps/StructureDefinition/allergyIntolerance-eu-eps"]},"text":{"status":"generated","div":"<div xmlns=\"http://www.w3.org/1999/xhtml\"><a name=\"AllergyIntolerance_19bb5bae-0cc6-455d-8348-336e71fd68ab\"> </a><table class=\"hl7__ips\"><tr><td>No known allergies or intolerances</td></tr></table></div>"},"code":{"coding":[{"system":"http://snomed.info/sct","code":"716186003","display":"No known allergy (situation)"}]},"patient":{"reference":"urn:uuid:0608e4bf-c598-48e0-ae7b-20e52fa2158f","display":"Ida Exel"},"_onsetDateTime":{"extension":[{"url":"http://hl7.org/fhir/StructureDefinition/data-absent-reason","valueCode":"unknown"}]}}},{"fullUrl":"urn:uuid:2d3020e3-7b31-4584-a3bb-93b5bed128a9","resource":{"resourceType":"CarePlan","id":"2d3020e3-7b31-4584-a3bb-93b5bed128a9","text":{"status":"generated","div":"<div xmlns=\"http://www.w3.org/1999/xhtml\"><a name=\"CarePlan_2d3020e3-7b31-4584-a3bb-93b5bed128a9\"> </a><table class=\"hl7__ips\"><tr><td>Heart failure self management plan</td><td><span class=\"nb\">2025-02-02</span></td><td>Chronic congestive heart failure (disorder)</td></tr></table></div>"},"status":"active","intent":"plan","category":[{"coding":[{"system":"http://terminology.hl7.org/CodeSystem/care-plan-category","code":"assess-plan","display":"Assessment and Plan"}]}],"subject":{"reference":"urn:uuid:0608e4bf-c598-48e0-ae7b-20e52fa2158f","display":"Ida Exel"},"period":{"start":"2025-02-02"},"activity":[{"detail":{"kind":"appointment","code":{"coding":[{"system":"http://snomed.info/sct","code":"735984001","display":"Heart failure self management plan (record artifact)"}]},"reasonCode":[{"coding":[{"system":"http://snomed.info/sct","code":"88805009","display":"Chronic congestive heart failure (disorder)"}]}],"status":"unknown","description":"Heart failure self management plan"}}]}},{"fullUrl":"urn:uuid:a4a119a5-1e82-4a24-b4fd-d0eab6d1637a","resource":{"resourceType":"CarePlan","id":"a4a119a5-1e82-4a24-b4fd-d0eab6d1637a","text":{"status":"generated","div":"<div xmlns=\"http://www.w3.org/1999/xhtml\"><a name=\"CarePlan_a4a119a5-1e82-4a24-b4fd-d0eab6d1637a\"> </a><table class=\"hl7__ips\"><tr><td>Discharge care plan</td><td><span class=\"nb\">1997-03-27</span></td><td>-</td></tr></table></div>"},"status":"active","intent":"plan","category":[{"coding":[{"system":"http://terminology.hl7.org/CodeSystem/care-plan-category","code":"assess-plan","display":"Assessment and Plan"}]}],"subject":{"reference":"urn:uuid:0608e4bf-c598-48e0-ae7b-20e52fa2158f","display":"Ida Exel"},"period":{"start":"1997-03-27"},"activity":[{"detail":{"kind":"appointment","code":{"coding":[{"system":"http://snomed.info/sct","code":"736372004","display":"Discharge care plan (record artifact)"}]},"status":"unknown","description":"Discharge care plan"}}]}},{"fullUrl":"urn:uuid:6e541d32-9db0-4a4e-943d-5c493bf9349b","resource":{"resourceType":"CarePlan","id":"6e541d32-9db0-4a4e-943d-5c493bf9349b","text":{"status":"generated","div":"<div xmlns=\"http://www.w3.org/1999/xhtml\"><a name=\"CarePlan_6e541d32-9db0-4a4e-943d-5c493bf9349b\"> </a><table class=\"hl7__ips\"><tr><td>Diabetes self management plan</td><td><span class=\"nb\">1967-02-18</span></td><td>Prediabetes</td></tr></table></div>"},"status":"active","intent":"plan","category":[{"coding":[{"system":"http://terminology.hl7.org/CodeSystem/care-plan-category","code":"assess-plan","display":"Assessment and Plan"}]}],"subject":{"reference":"urn:uuid:0608e4bf-c598-48e0-ae7b-20e52fa2158f","display":"Ida Exel"},"period":{"start":"1967-02-18"},"activity":[{"detail":{"kind":"appointment","code":{"coding":[{"system":"http://snomed.info/sct","code":"698360004","display":"Diabetes self management plan (qualifier value)"}]},"reasonCode":[{"coding":[{"system":"http://snomed.info/sct","code":"15777000","display":"Prediabetes"}]}],"status":"unknown","description":"Diabetes self management plan"}}]}},{"fullUrl":"urn:uuid:bad5bed8-bc00-45dd-915d-6653da15d88b","resource":{"resourceType":"ImmunizationRecommendation","id":"bad5bed8-bc00-45dd-915d-6653da15d88b","text":{"status":"generated","div":"<div xmlns=\"http://www.w3.org/1999/xhtml\"><a name=\"ImmunizationRecommendation_bad5bed8-bc00-45dd-915d-6653da15d88b\"> </a><table class=\"hl7__ips\"><tr><td>Vaccine product containing only Influenza virus antigen (medicinal product)</td><td><span class=\"nb\">2025-10-01</span></td><td>Annual seasonal influenza vaccination</td></tr></table></div>"},"patient":{"reference":"urn:uuid:0608e4bf-c598-48e0-ae7b-20e52fa2158f","display":"Ida Exel"},"date":"2025-08-31","recommendation":[{"vaccineCode":[{"coding":[{"system":"http://snomed.info/sct","code":"1181000221105","display":"Vaccine product containing only Influenza virus antigen (medicinal product)"}]}],"targetDisease":{"coding":[{"system":"http://snomed.info/sct","code":"6142004","display":"Influenza (disorder)"}]},"forecastStatus":{"coding":[{"system":"http://terminology.hl7.org/CodeSystem/immunization-recommendation-status","code":"due","display":"Due"}]},"dateCriterion":[{"code":{"coding":[{"system":"http://loinc.org","code":"30980-7","display":"Date vaccine due"}]},"value":"2025-10-01"}],"series":"Annual seasonal influenza vaccination","supportingImmunization":[{"reference":"urn:uuid:de5454a4-1a41-44a6-b0fc-5911b1174b84"}]}]}},{"fullUrl":"urn:uuid:1d8089a8-0cca-4787-824b-edbaa3688718","resource":{"resourceType":"Observation","id":"1d8089a8-0cca-4787-824b-edbaa3688718","meta":{"profile":["http://hl7.org/fhir/StructureDefinition/vitalsigns"]},"text":{"status":"generated","div":"<div xmlns=\"http://www.w3.org/1999/xhtml\"><a name=\"Observation_1d8089a8-0cca-4787-824b-edbaa3688718\"> </a><table class=\"hl7__ips\"><tr><td>Body Height</td><td>167.9 cm</td></tr></table></div>"},"status":"final","category":[{"coding":[{"system":"http://terminology.hl7.org/CodeSystem/observation-category","code":"vital-signs","display":"Vital Signs"}]}],"code":{"coding":[{"system":"http://loinc.org","code":"8302-2","display":"Body Height"}]},"subject":{"reference":"urn:uuid:0608e4bf-c598-48e0-ae7b-20e52fa2158f","display":"Ida Exel"},"effectiveDateTime":"2025-04-05","valueQuantity":{"value":167.9,"unit":"cm","code":"cm"}}},{"fullUrl":"urn:uuid:f0701a9c-2c16-4231-9059-4229a22d038a","resource":{"resourceType":"Observation","id":"f0701a9c-2c16-4231-9059-4229a22d038a","meta":{"profile":["http://hl7.org/fhir/StructureDefinition/vitalsigns"]},"text":{"status":"generated","div":"<div xmlns=\"http://www.w3.org/1999/xhtml\"><a name=\"Observation_f0701a9c-2c16-4231-9059-4229a22d038a\"> </a><table class=\"hl7__ips\"><tr><td>Pain severity - 0-10 verbal numeric rating [Score] - Reported</td><td>2 {score}</td></tr></table></div>"},"status":"final","category":[{"coding":[{"system":"http://terminology.hl7.org/CodeSystem/observation-category","code":"vital-signs","display":"Vital Signs"}]}],"code":{"coding":[{"system":"http://loinc.org","code":"72514-3","display":"Pain severity - 0-10 verbal numeric rating [Score] - Reported"}]},"subject":{"reference":"urn:uuid:0608e4bf-c598-48e0-ae7b-20e52fa2158f","display":"Ida Exel"},"effectiveDateTime":"2025-04-05","valueQuantity":{"value":2,"unit":"{score}","code":"{score}"}}},{"fullUrl":"urn:uuid:a77dc7b4-cf7b-47d1-8a2f-731a38774ef8","resource":{"resourceType":"Observation","id":"a77dc7b4-cf7b-47d1-8a2f-731a38774ef8","meta":{"profile":["http://hl7.org/fhir/StructureDefinition/vitalsigns"]},"text":{"status":"generated","div":"<div xmlns=\"http://www.w3.org/1999/xhtml\"><a name=\"Observation_a77dc7b4-cf7b-47d1-8a2f-731a38774ef8\"> </a><table class=\"hl7__ips\"><tr><td>Body Weight</td><td>76.5 kg</td></tr></table></div>"},"status":"final","category":[{"coding":[{"system":"http://terminology.hl7.org/CodeSystem/observation-category","code":"vital-signs","display":"Vital Signs"}]}],"code":{"coding":[{"system":"http://loinc.org","code":"29463-7","display":"Body Weight"}]},"subject":{"reference":"urn:uuid:0608e4bf-c598-48e0-ae7b-20e52fa2158f","display":"Ida Exel"},"effectiveDateTime":"2025-04-05","valueQuantity":{"value":76.5,"unit":"kg","code":"kg"}}},{"fullUrl":"urn:uuid:4dc0e4d9-6305-43bc-a2e9-b40040089fc1","resource":{"resourceType":"Observation","id":"4dc0e4d9-6305-43bc-a2e9-b40040089fc1","meta":{"profile":["http://hl7.org/fhir/StructureDefinition/vitalsigns"]},"text":{"status":"generated","div":"<div xmlns=\"http://www.w3.org/1999/xhtml\"><a name=\"Observation_4dc0e4d9-6305-43bc-a2e9-b40040089fc1\"> </a><table class=\"hl7__ips\"><tr><td>Body mass index (BMI) [Ratio]</td><td>27.1 kg/m2</td></tr></table></div>"},"status":"final","category":[{"coding":[{"system":"http://terminology.hl7.org/CodeSystem/observation-category","code":"vital-signs","display":"Vital Signs"}]}],"code":{"coding":[{"system":"http://loinc.org","code":"39156-5","display":"Body mass index (BMI) [Ratio]"}]},"subject":{"reference":"urn:uuid:0608e4bf-c598-48e0-ae7b-20e52fa2158f","display":"Ida Exel"},"effectiveDateTime":"2025-04-05","valueQuantity":{"value":27.1,"unit":"kg/m2","code":"kg/m2"}}},{"fullUrl":"urn:uuid:b30bcaf2-833f-4d85-9805-06559d098b72","resource":{"resourceType":"Observation","id":"b30bcaf2-833f-4d85-9805-06559d098b72","meta":{"profile":["http://hl7.org/fhir/StructureDefinition/vitalsigns"]},"text":{"status":"generated","div":"<div xmlns=\"http://www.w3.org/1999/xhtml\"><a name=\"Observation_b30bcaf2-833f-4d85-9805-06559d098b72\"> </a><table class=\"hl7__ips\"><tr><td>Diastolic Blood Pressure</td><td>49 mm[Hg]</td></tr></table></div>"},"status":"final","category":[{"coding":[{"system":"http://terminology.hl7.org/CodeSystem/observation-category","code":"vital-signs","display":"Vital Signs"}]}],"code":{"coding":[{"system":"http://loinc.org","code":"8462-4","display":"Diastolic Blood Pressure"}]},"subject":{"reference":"urn:uuid:0608e4bf-c598-48e0-ae7b-20e52fa2158f","display":"Ida Exel"},"effectiveDateTime":"2025-04-05","valueQuantity":{"value":49,"unit":"mm[Hg]","code":"mm[Hg]"}}},{"fullUrl":"urn:uuid:c57b63c0-c827-4d24-810f-7afe76d37801","resource":{"resourceType":"Observation","id":"c57b63c0-c827-4d24-810f-7afe76d37801","meta":{"profile":["http://hl7.org/fhir/StructureDefinition/vitalsigns"]},"text":{"status":"generated","div":"<div xmlns=\"http://www.w3.org/1999/xhtml\"><a name=\"Observation_c57b63c0-c827-4d24-810f-7afe76d37801\"> </a><table class=\"hl7__ips\"><tr><td>Systolic Blood Pressure</td><td>85 mm[Hg]</td></tr></table></div>"},"status":"final","category":[{"coding":[{"system":"http://terminology.hl7.org/CodeSystem/observation-category","code":"vital-signs","display":"Vital Signs"}]}],"code":{"coding":[{"system":"http://loinc.org","code":"8480-6","display":"Systolic Blood Pressure"}]},"subject":{"reference":"urn:uuid:0608e4bf-c598-48e0-ae7b-20e52fa2158f","display":"Ida Exel"},"effectiveDateTime":"2025-04-05","valueQuantity":{"value":85,"unit":"mm[Hg]","code":"mm[Hg]"}}},{"fullUrl":"urn:uuid:c9ec0c2b-e956-41fd-83b0-11ee3b907a2e","resource":{"resourceType":"Observation","id":"c9ec0c2b-e956-41fd-83b0-11ee3b907a2e","meta":{"profile":["http://hl7.org/fhir/StructureDefinition/vitalsigns"]},"text":{"status":"generated","div":"<div xmlns=\"http://www.w3.org/1999/xhtml\"><a name=\"Observation_c9ec0c2b-e956-41fd-83b0-11ee3b907a2e\"> </a><table class=\"hl7__ips\"><tr><td>Heart rate</td><td>85 /min</td></tr></table></div>"},"status":"final","category":[{"coding":[{"system":"http://terminology.hl7.org/CodeSystem/observation-category","code":"vital-signs","display":"Vital Signs"}]}],"code":{"coding":[{"system":"http://loinc.org","code":"8867-4","display":"Heart rate"}]},"subject":{"reference":"urn:uuid:0608e4bf-c598-48e0-ae7b-20e52fa2158f","display":"Ida Exel"},"effectiveDateTime":"2025-04-05","valueQuantity":{"value":85,"unit":"/min","code":"/min"}}},{"fullUrl":"urn:uuid:512ea2df-c7eb-47e2-a079-1315b3ee6005","resource":{"resourceType":"Observation","id":"512ea2df-c7eb-47e2-a079-1315b3ee6005","meta":{"profile":["http://hl7.org/fhir/StructureDefinition/vitalsigns"]},"text":{"status":"generated","div":"<div xmlns=\"http://www.w3.org/1999/xhtml\"><a name=\"Observation_512ea2df-c7eb-47e2-a079-1315b3ee6005\"> </a><table class=\"hl7__ips\"><tr><td>Respiratory rate</td><td>15 /min</td></tr></table></div>"},"status":"final","category":[{"coding":[{"system":"http://terminology.hl7.org/CodeSystem/observation-category","code":"vital-signs","display":"Vital Signs"}]}],"code":{"coding":[{"system":"http://loinc.org","code":"9279-1","display":"Respiratory rate"}]},"subject":{"reference":"urn:uuid:0608e4bf-c598-48e0-ae7b-20e52fa2158f","display":"Ida Exel"},"effectiveDateTime":"2025-04-05","valueQuantity":{"value":15,"unit":"/min","code":"/min"}}},{"fullUrl":"urn:uuid:520c737c-0693-4713-b653-7b4153cd0b8b","resource":{"resourceType":"Observation","id":"520c737c-0693-4713-b653-7b4153cd0b8b","meta":{"profile":["http://hl7.org/fhir/StructureDefinition/vitalsigns"]},"text":{"status":"generated","div":"<div xmlns=\"http://www.w3.org/1999/xhtml\"><a name=\"Observation_520c737c-0693-4713-b653-7b4153cd0b8b\"> </a><table class=\"hl7__ips\"><tr><td>Body Weight</td><td>76.5 kg</td></tr></table></div>"},"status":"final","category":[{"coding":[{"system":"http://terminology.hl7.org/CodeSystem/observation-category","code":"vital-signs","display":"Vital Signs"}]}],"code":{"coding":[{"system":"http://loinc.org","code":"29463-7","display":"Body Weight"}]},"subject":{"reference":"urn:uuid:0608e4bf-c598-48e0-ae7b-20e52fa2158f","display":"Ida Exel"},"effectiveDateTime":"2025-01-19","valueQuantity":{"value":76.5,"unit":"kg","code":"kg"}}},{"fullUrl":"urn:uuid:e9533bc2-76e2-4bc8-97fe-c2140d52befc","resource":{"resourceType":"Observation","id":"e9533bc2-76e2-4bc8-97fe-c2140d52befc","meta":{"profile":["http://hl7.eu/fhir/laboratory/StructureDefinition/Observation-resultslab-eu-lab"]},"text":{"status":"generated","div":"<div xmlns=\"http://www.w3.org/1999/xhtml\"><a name=\"Observation_e9533bc2-76e2-4bc8-97fe-c2140d52befc\"> </a><p class=\"res-header-id\"><b>Generated Narrative: Observation e9533bc2-76e2-4bc8-97fe-c2140d52befc</b></p><a name=\"e9533bc2-76e2-4bc8-97fe-c2140d52befc\"> </a><a name=\"hce9533bc2-76e2-4bc8-97fe-c2140d52befc\"> </a><div style=\"display: inline-block; background-color: #d9e0e7; padding: 6px; margin: 4px; border: 1px solid #8da1b4; border-radius: 5px; line-height: 60%\"><p style=\"margin-bottom: 0px\"/><p style=\"margin-bottom: 0px\">Profile: <a href=\"http://hl7.eu/fhir/laboratory/0.1.1/StructureDefinition-Observation-resultslab-eu-lab.html\">Observation Results: laboratory</a></p></div><p><b>status</b>: Final</p><p><b>category</b>: <span title=\"Codes:{http://terminology.hl7.org/CodeSystem/observation-category laboratory}\">Laboratory</span></p><p><b>code</b>: <span title=\"Codes:{http://loinc.org 33762-6}\">Natriuretic peptide.B prohormone N-Terminal [Mass/volume] in Serum or Plasma</span></p><p><b>subject</b>: <a href=\"Bundle-Instance-Bundle-77013a3f-bd32-4284-a08f-77750c8705bf.html#urn-uuid-0608e4bf-c598-48e0-ae7b-20e52fa2158f\">Ida Exel Female, DoB: 1944-04-22 ( Jurisdictional health number)</a></p><p><b>effective</b>: 2025-01-19</p><p><b>performer</b>: The Central European Lab</p><p><b>value</b>: 1114.1 pg/mL<span style=\"background: LightGoldenRodYellow\"> (Details: UCUM  code33762-6 = '33762-6')</span></p><p><b>interpretation</b>: <span title=\"Codes:{http://terminology.hl7.org/CodeSystem/v3-ObservationInterpretation H}\">High</span></p><h3>ReferenceRanges</h3><table class=\"grid\"><tr><td style=\"display: none\">-</td><td><b>Low</b></td><td><b>High</b></td></tr><tr><td style=\"display: none\">*</td><td>450 pg/mL<span style=\"background: LightGoldenRodYellow\"> (Details: UCUM  codepg/mL = 'pg/mL')</span></td><td> </td></tr><tr><td style=\"display: none\">*</td><td> </td><td>900 pg/mL<span style=\"background: LightGoldenRodYellow\"> (Details: UCUM  codepg/mL = 'pg/mL')</span></td></tr></table></div>"},"status":"final","category":[{"coding":[{"system":"http://terminology.hl7.org/CodeSystem/observation-category","code":"laboratory"}]}],"code":{"coding":[{"system":"http://loinc.org","code":"33762-6","display":"Natriuretic peptide.B prohormone N-Terminal [Mass/volume] in Serum or Plasma"}],"text":"Natriuretic peptide.B prohormone N-Terminal [Mass/volume] in Serum or Plasma"},"subject":{"reference":"urn:uuid:0608e4bf-c598-48e0-ae7b-20e52fa2158f"},"effectiveDateTime":"2025-01-19","performer":[{"display":"The Central European Lab"}],"valueQuantity":{"value":1114.1,"unit":"pg/mL","system":"http://unitsofmeasure.org","code":"33762-6"},"interpretation":[{"coding":[{"system":"http://terminology.hl7.org/CodeSystem/v3-ObservationInterpretation","code":"H","display":"High"}]}],"referenceRange":[{"low":{"value":450,"system":"http://unitsofmeasure.org","code":"pg/mL"}},{"high":{"value":900,"system":"http://unitsofmeasure.org","code":"pg/mL"}}]}},{"fullUrl":"urn:uuid:df78f587-3b9f-41ee-8104-064ede5e7fdc","resource":{"resourceType":"Observation","id":"df78f587-3b9f-41ee-8104-064ede5e7fdc","meta":{"profile":["http://hl7.eu/fhir/laboratory/StructureDefinition/Observation-resultslab-eu-lab"]},"text":{"status":"generated","div":"<div xmlns=\"http://www.w3.org/1999/xhtml\"><a name=\"Observation_df78f587-3b9f-41ee-8104-064ede5e7fdc\"> </a><p class=\"res-header-id\"><b>Generated Narrative: Observation df78f587-3b9f-41ee-8104-064ede5e7fdc</b></p><a name=\"df78f587-3b9f-41ee-8104-064ede5e7fdc\"> </a><a name=\"hcdf78f587-3b9f-41ee-8104-064ede5e7fdc\"> </a><div style=\"display: inline-block; background-color: #d9e0e7; padding: 6px; margin: 4px; border: 1px solid #8da1b4; border-radius: 5px; line-height: 60%\"><p style=\"margin-bottom: 0px\"/><p style=\"margin-bottom: 0px\">Profile: <a href=\"http://hl7.eu/fhir/laboratory/0.1.1/StructureDefinition-Observation-resultslab-eu-lab.html\">Observation Results: laboratory</a></p></div><p><b>status</b>: Final</p><p><b>category</b>: <span title=\"Codes:{http://terminology.hl7.org/CodeSystem/observation-category laboratory}\">Laboratory</span></p><p><b>code</b>: <span title=\"Codes:{http://loinc.org 6690-2}\">Leukocytes [#/volume] in Blood by Automated count</span></p><p><b>subject</b>: <a href=\"Bundle-Instance-Bundle-77013a3f-bd32-4284-a08f-77750c8705bf.html#urn-uuid-0608e4bf-c598-48e0-ae7b-20e52fa2158f\">Ida Exel Female, DoB: 1944-04-22 ( Jurisdictional health number)</a></p><p><b>effective</b>: 2025-01-19</p><p><b>performer</b>: The Central European Lab</p><p><b>value</b>: 10.7 10*3/uL<span style=\"background: LightGoldenRodYellow\"> (Details: UCUM  code6690-2 = '6690-2')</span></p><p><b>interpretation</b>: <span title=\"Codes:{http://terminology.hl7.org/CodeSystem/v3-ObservationInterpretation H}\">High</span></p><h3>ReferenceRanges</h3><table class=\"grid\"><tr><td style=\"display: none\">-</td><td><b>Low</b></td><td><b>High</b></td></tr><tr><td style=\"display: none\">*</td><td>3.4 10*3/uL<span style=\"background: LightGoldenRodYellow\"> (Details: UCUM  code10*3/uL = '10*3/uL')</span></td><td> </td></tr><tr><td style=\"display: none\">*</td><td> </td><td>10.6 10*3/uL<span style=\"background: LightGoldenRodYellow\"> (Details: UCUM  code10*3/uL = '10*3/uL')</span></td></tr></table></div>"},"status":"final","category":[{"coding":[{"system":"http://terminology.hl7.org/CodeSystem/observation-category","code":"laboratory"}]}],"code":{"coding":[{"system":"http://loinc.org","code":"6690-2","display":"Leukocytes [#/volume] in Blood by Automated count"}],"text":"Leukocytes [#/volume] in Blood by Automated count"},"subject":{"reference":"urn:uuid:0608e4bf-c598-48e0-ae7b-20e52fa2158f"},"effectiveDateTime":"2025-01-19","performer":[{"display":"The Central European Lab"}],"valueQuantity":{"value":10.7,"unit":"10*3/uL","system":"http://unitsofmeasure.org","code":"6690-2"},"interpretation":[{"coding":[{"system":"http://terminology.hl7.org/CodeSystem/v3-ObservationInterpretation","code":"H","display":"High"}]}],"referenceRange":[{"low":{"value":3.4,"system":"http://unitsofmeasure.org","code":"10*3/uL"}},{"high":{"value":10.6,"system":"http://unitsofmeasure.org","code":"10*3/uL"}}]}},{"fullUrl":"urn:uuid:e39e1e3d-0f08-4539-8340-03eb15ad15da","resource":{"resourceType":"Observation","id":"e39e1e3d-0f08-4539-8340-03eb15ad15da","meta":{"profile":["http://hl7.eu/fhir/laboratory/StructureDefinition/Observation-resultslab-eu-lab"]},"text":{"status":"generated","div":"<div xmlns=\"http://www.w3.org/1999/xhtml\"><a name=\"Observation_e39e1e3d-0f08-4539-8340-03eb15ad15da\"> </a><p class=\"res-header-id\"><b>Generated Narrative: Observation e39e1e3d-0f08-4539-8340-03eb15ad15da</b></p><a name=\"e39e1e3d-0f08-4539-8340-03eb15ad15da\"> </a><a name=\"hce39e1e3d-0f08-4539-8340-03eb15ad15da\"> </a><div style=\"display: inline-block; background-color: #d9e0e7; padding: 6px; margin: 4px; border: 1px solid #8da1b4; border-radius: 5px; line-height: 60%\"><p style=\"margin-bottom: 0px\"/><p style=\"margin-bottom: 0px\">Profile: <a href=\"http://hl7.eu/fhir/laboratory/0.1.1/StructureDefinition-Observation-resultslab-eu-lab.html\">Observation Results: laboratory</a></p></div><p><b>status</b>: Final</p><p><b>category</b>: <span title=\"Codes:{http://terminology.hl7.org/CodeSystem/observation-category laboratory}\">Laboratory</span></p><p><b>code</b>: <span title=\"Codes:{http://loinc.org 789-8}\">Erythrocytes [#/volume] in Blood by Automated count</span></p><p><b>subject</b>: <a href=\"Bundle-Instance-Bundle-77013a3f-bd32-4284-a08f-77750c8705bf.html#urn-uuid-0608e4bf-c598-48e0-ae7b-20e52fa2158f\">Ida Exel Female, DoB: 1944-04-22 ( Jurisdictional health number)</a></p><p><b>effective</b>: 2025-01-19</p><p><b>performer</b>: The Central European Lab</p><p><b>value</b>: 5.3 10*6/uL<span style=\"background: LightGoldenRodYellow\"> (Details: UCUM  code789-8 = '789-8')</span></p><h3>ReferenceRanges</h3><table class=\"grid\"><tr><td style=\"display: none\">-</td><td><b>Low</b></td><td><b>High</b></td></tr><tr><td style=\"display: none\">*</td><td>3.8 10*6/uL<span style=\"background: LightGoldenRodYellow\"> (Details: UCUM  code10*6/uL = '10*6/uL')</span></td><td> </td></tr><tr><td style=\"display: none\">*</td><td> </td><td>5.7 10*6/uL<span style=\"background: LightGoldenRodYellow\"> (Details: UCUM  code10*6/uL = '10*6/uL')</span></td></tr></table></div>"},"status":"final","category":[{"coding":[{"system":"http://terminology.hl7.org/CodeSystem/observation-category","code":"laboratory"}]}],"code":{"coding":[{"system":"http://loinc.org","code":"789-8","display":"Erythrocytes [#/volume] in Blood by Automated count"}],"text":"Erythrocytes [#/volume] in Blood by Automated count"},"subject":{"reference":"urn:uuid:0608e4bf-c598-48e0-ae7b-20e52fa2158f"},"effectiveDateTime":"2025-01-19","performer":[{"display":"The Central European Lab"}],"valueQuantity":{"value":5.3,"unit":"10*6/uL","system":"http://unitsofmeasure.org","code":"789-8"},"referenceRange":[{"low":{"value":3.8,"system":"http://unitsofmeasure.org","code":"10*6/uL"}},{"high":{"value":5.7,"system":"http://unitsofmeasure.org","code":"10*6/uL"}}]}},{"fullUrl":"urn:uuid:3364293d-b62d-4e54-8912-399ac0e6c9fe","resource":{"resourceType":"Observation","id":"3364293d-b62d-4e54-8912-399ac0e6c9fe","meta":{"profile":["http://hl7.eu/fhir/laboratory/StructureDefinition/Observation-resultslab-eu-lab"]},"text":{"status":"generated","div":"<div xmlns=\"http://www.w3.org/1999/xhtml\"><a name=\"Observation_3364293d-b62d-4e54-8912-399ac0e6c9fe\"> </a><p class=\"res-header-id\"><b>Generated Narrative: Observation 3364293d-b62d-4e54-8912-399ac0e6c9fe</b></p><a name=\"3364293d-b62d-4e54-8912-399ac0e6c9fe\"> </a><a name=\"hc3364293d-b62d-4e54-8912-399ac0e6c9fe\"> </a><div style=\"display: inline-block; background-color: #d9e0e7; padding: 6px; margin: 4px; border: 1px solid #8da1b4; border-radius: 5px; line-height: 60%\"><p style=\"margin-bottom: 0px\"/><p style=\"margin-bottom: 0px\">Profile: <a href=\"http://hl7.eu/fhir/laboratory/0.1.1/StructureDefinition-Observation-resultslab-eu-lab.html\">Observation Results: laboratory</a></p></div><p><b>status</b>: Final</p><p><b>category</b>: <span title=\"Codes:{http://terminology.hl7.org/CodeSystem/observation-category laboratory}\">Laboratory</span></p><p><b>code</b>: <span title=\"Codes:{http://loinc.org 718-7}\">Hemoglobin [Mass/volume] in Blood</span></p><p><b>subject</b>: <a href=\"Bundle-Instance-Bundle-77013a3f-bd32-4284-a08f-77750c8705bf.html#urn-uuid-0608e4bf-c598-48e0-ae7b-20e52fa2158f\">Ida Exel Female, DoB: 1944-04-22 ( Jurisdictional health number)</a></p><p><b>effective</b>: 2025-01-19</p><p><b>performer</b>: The Central European Lab</p><p><b>value</b>: 12.3 g/dL<span style=\"background: LightGoldenRodYellow\"> (Details: UCUM  code718-7 = '718-7')</span></p><h3>ReferenceRanges</h3><table class=\"grid\"><tr><td style=\"display: none\">-</td><td><b>Low</b></td><td><b>High</b></td></tr><tr><td style=\"display: none\">*</td><td>12.1 g/dL<span style=\"background: LightGoldenRodYellow\"> (Details: UCUM  codeg/dL = 'g/dL')</span></td><td> </td></tr><tr><td style=\"display: none\">*</td><td> </td><td>15.5 g/dL<span style=\"background: LightGoldenRodYellow\"> (Details: UCUM  codeg/dL = 'g/dL')</span></td></tr></table></div>"},"status":"final","category":[{"coding":[{"system":"http://terminology.hl7.org/CodeSystem/observation-category","code":"laboratory"}]}],"code":{"coding":[{"system":"http://loinc.org","code":"718-7","display":"Hemoglobin [Mass/volume] in Blood"}],"text":"Hemoglobin [Mass/volume] in Blood"},"subject":{"reference":"urn:uuid:0608e4bf-c598-48e0-ae7b-20e52fa2158f"},"effectiveDateTime":"2025-01-19","performer":[{"display":"The Central European Lab"}],"valueQuantity":{"value":12.3,"unit":"g/dL","system":"http://unitsofmeasure.org","code":"718-7"},"referenceRange":[{"low":{"value":12.1,"system":"http://unitsofmeasure.org","code":"g/dL"}},{"high":{"value":15.5,"system":"http://unitsofmeasure.org","code":"g/dL"}}]}},{"fullUrl":"urn:uuid:17994608-6847-4988-8be0-951e82d8403b","resource":{"resourceType":"Observation","id":"17994608-6847-4988-8be0-951e82d8403b","meta":{"profile":["http://hl7.eu/fhir/laboratory/StructureDefinition/Observation-resultslab-eu-lab"]},"text":{"status":"generated","div":"<div xmlns=\"http://www.w3.org/1999/xhtml\"><a name=\"Observation_17994608-6847-4988-8be0-951e82d8403b\"> </a><p class=\"res-header-id\"><b>Generated Narrative: Observation 17994608-6847-4988-8be0-951e82d8403b</b></p><a name=\"17994608-6847-4988-8be0-951e82d8403b\"> </a><a name=\"hc17994608-6847-4988-8be0-951e82d8403b\"> </a><div style=\"display: inline-block; background-color: #d9e0e7; padding: 6px; margin: 4px; border: 1px solid #8da1b4; border-radius: 5px; line-height: 60%\"><p style=\"margin-bottom: 0px\"/><p style=\"margin-bottom: 0px\">Profile: <a href=\"http://hl7.eu/fhir/laboratory/0.1.1/StructureDefinition-Observation-resultslab-eu-lab.html\">Observation Results: laboratory</a></p></div><p><b>status</b>: Final</p><p><b>category</b>: <span title=\"Codes:{http://terminology.hl7.org/CodeSystem/observation-category laboratory}\">Laboratory</span></p><p><b>code</b>: <span title=\"Codes:{http://loinc.org 4544-3}\">Hematocrit [Volume Fraction] of Blood by Automated count</span></p><p><b>subject</b>: <a href=\"Bundle-Instance-Bundle-77013a3f-bd32-4284-a08f-77750c8705bf.html#urn-uuid-0608e4bf-c598-48e0-ae7b-20e52fa2158f\">Ida Exel Female, DoB: 1944-04-22 ( Jurisdictional health number)</a></p><p><b>effective</b>: 2025-01-19</p><p><b>performer</b>: The Central European Lab</p><p><b>value</b>: 36.3 %<span style=\"background: LightGoldenRodYellow\"> (Details: UCUM  code4544-3 = '4544-3')</span></p><h3>ReferenceRanges</h3><table class=\"grid\"><tr><td style=\"display: none\">-</td><td><b>Low</b></td><td><b>High</b></td></tr><tr><td style=\"display: none\">*</td><td>36 %<span style=\"background: LightGoldenRodYellow\"> (Details: UCUM  code% = '%')</span></td><td> </td></tr><tr><td style=\"display: none\">*</td><td> </td><td>48 %<span style=\"background: LightGoldenRodYellow\"> (Details: UCUM  code% = '%')</span></td></tr></table></div>"},"status":"final","category":[{"coding":[{"system":"http://terminology.hl7.org/CodeSystem/observation-category","code":"laboratory"}]}],"code":{"coding":[{"system":"http://loinc.org","code":"4544-3","display":"Hematocrit [Volume Fraction] of Blood by Automated count"}],"text":"Hematocrit [Volume Fraction] of Blood by Automated count"},"subject":{"reference":"urn:uuid:0608e4bf-c598-48e0-ae7b-20e52fa2158f"},"effectiveDateTime":"2025-01-19","performer":[{"display":"The Central European Lab"}],"valueQuantity":{"value":36.3,"unit":"%","system":"http://unitsofmeasure.org","code":"4544-3"},"referenceRange":[{"low":{"value":36,"system":"http://unitsofmeasure.org","code":"%"}},{"high":{"value":48,"system":"http://unitsofmeasure.org","code":"%"}}]}},{"fullUrl":"urn:uuid:a155652d-3bf2-472f-adc1-fca7139f30d1","resource":{"resourceType":"Observation","id":"a155652d-3bf2-472f-adc1-fca7139f30d1","meta":{"profile":["http://hl7.eu/fhir/laboratory/StructureDefinition/Observation-resultslab-eu-lab"]},"text":{"status":"generated","div":"<div xmlns=\"http://www.w3.org/1999/xhtml\"><a name=\"Observation_a155652d-3bf2-472f-adc1-fca7139f30d1\"> </a><p class=\"res-header-id\"><b>Generated Narrative: Observation a155652d-3bf2-472f-adc1-fca7139f30d1</b></p><a name=\"a155652d-3bf2-472f-adc1-fca7139f30d1\"> </a><a name=\"hca155652d-3bf2-472f-adc1-fca7139f30d1\"> </a><div style=\"display: inline-block; background-color: #d9e0e7; padding: 6px; margin: 4px; border: 1px solid #8da1b4; border-radius: 5px; line-height: 60%\"><p style=\"margin-bottom: 0px\"/><p style=\"margin-bottom: 0px\">Profile: <a href=\"http://hl7.eu/fhir/laboratory/0.1.1/StructureDefinition-Observation-resultslab-eu-lab.html\">Observation Results: laboratory</a></p></div><p><b>status</b>: Final</p><p><b>category</b>: <span title=\"Codes:{http://terminology.hl7.org/CodeSystem/observation-category laboratory}\">Laboratory</span></p><p><b>code</b>: <span title=\"Codes:{http://loinc.org 787-2}\">MCV [Entitic volume] by Automated count</span></p><p><b>subject</b>: <a href=\"Bundle-Instance-Bundle-77013a3f-bd32-4284-a08f-77750c8705bf.html#urn-uuid-0608e4bf-c598-48e0-ae7b-20e52fa2158f\">Ida Exel Female, DoB: 1944-04-22 ( Jurisdictional health number)</a></p><p><b>effective</b>: 2025-01-19</p><p><b>performer</b>: The Central European Lab</p><p><b>value</b>: 95.6 fL<span style=\"background: LightGoldenRodYellow\"> (Details: UCUM  code787-2 = '787-2')</span></p><h3>ReferenceRanges</h3><table class=\"grid\"><tr><td style=\"display: none\">-</td><td><b>Low</b></td><td><b>High</b></td></tr><tr><td style=\"display: none\">*</td><td>80 fL<span style=\"background: LightGoldenRodYellow\"> (Details: UCUM  codefL = 'fL')</span></td><td> </td></tr><tr><td style=\"display: none\">*</td><td> </td><td>105 fL<span style=\"background: LightGoldenRodYellow\"> (Details: UCUM  codefL = 'fL')</span></td></tr></table></div>"},"status":"final","category":[{"coding":[{"system":"http://terminology.hl7.org/CodeSystem/observation-category","code":"laboratory"}]}],"code":{"coding":[{"system":"http://loinc.org","code":"787-2","display":"MCV [Entitic volume] by Automated count"}],"text":"MCV [Entitic volume] by Automated count"},"subject":{"reference":"urn:uuid:0608e4bf-c598-48e0-ae7b-20e52fa2158f"},"effectiveDateTime":"2025-01-19","performer":[{"display":"The Central European Lab"}],"valueQuantity":{"value":95.6,"unit":"fL","system":"http://unitsofmeasure.org","code":"787-2"},"referenceRange":[{"low":{"value":80,"system":"http://unitsofmeasure.org","code":"fL"}},{"high":{"value":105,"system":"http://unitsofmeasure.org","code":"fL"}}]}},{"fullUrl":"urn:uuid:7e21e4b9-9f92-41e4-932f-cc7f0f11609a","resource":{"resourceType":"Observation","id":"7e21e4b9-9f92-41e4-932f-cc7f0f11609a","meta":{"profile":["http://hl7.eu/fhir/laboratory/StructureDefinition/Observation-resultslab-eu-lab"]},"text":{"status":"generated","div":"<div xmlns=\"http://www.w3.org/1999/xhtml\"><a name=\"Observation_7e21e4b9-9f92-41e4-932f-cc7f0f11609a\"> </a><p class=\"res-header-id\"><b>Generated Narrative: Observation 7e21e4b9-9f92-41e4-932f-cc7f0f11609a</b></p><a name=\"7e21e4b9-9f92-41e4-932f-cc7f0f11609a\"> </a><a name=\"hc7e21e4b9-9f92-41e4-932f-cc7f0f11609a\"> </a><div style=\"display: inline-block; background-color: #d9e0e7; padding: 6px; margin: 4px; border: 1px solid #8da1b4; border-radius: 5px; line-height: 60%\"><p style=\"margin-bottom: 0px\"/><p style=\"margin-bottom: 0px\">Profile: <a href=\"http://hl7.eu/fhir/laboratory/0.1.1/StructureDefinition-Observation-resultslab-eu-lab.html\">Observation Results: laboratory</a></p></div><p><b>status</b>: Final</p><p><b>category</b>: <span title=\"Codes:{http://terminology.hl7.org/CodeSystem/observation-category laboratory}\">Laboratory</span></p><p><b>code</b>: <span title=\"Codes:{http://loinc.org 785-6}\">MCH [Entitic mass] by Automated count</span></p><p><b>subject</b>: <a href=\"Bundle-Instance-Bundle-77013a3f-bd32-4284-a08f-77750c8705bf.html#urn-uuid-0608e4bf-c598-48e0-ae7b-20e52fa2158f\">Ida Exel Female, DoB: 1944-04-22 ( Jurisdictional health number)</a></p><p><b>effective</b>: 2025-01-19</p><p><b>performer</b>: The Central European Lab</p><p><b>value</b>: 26.8 pg<span style=\"background: LightGoldenRodYellow\"> (Details: UCUM  code785-6 = '785-6')</span></p><p><b>interpretation</b>: <span title=\"Codes:{http://terminology.hl7.org/CodeSystem/v3-ObservationInterpretation L}\">Low</span></p><h3>ReferenceRanges</h3><table class=\"grid\"><tr><td style=\"display: none\">-</td><td><b>Low</b></td><td><b>High</b></td></tr><tr><td style=\"display: none\">*</td><td>27 pg<span style=\"background: LightGoldenRodYellow\"> (Details: UCUM  codepg = 'pg')</span></td><td> </td></tr><tr><td style=\"display: none\">*</td><td> </td><td>33 pg<span style=\"background: LightGoldenRodYellow\"> (Details: UCUM  codepg = 'pg')</span></td></tr></table></div>"},"status":"final","category":[{"coding":[{"system":"http://terminology.hl7.org/CodeSystem/observation-category","code":"laboratory"}]}],"code":{"coding":[{"system":"http://loinc.org","code":"785-6","display":"MCH [Entitic mass] by Automated count"}],"text":"MCH [Entitic mass] by Automated count"},"subject":{"reference":"urn:uuid:0608e4bf-c598-48e0-ae7b-20e52fa2158f"},"effectiveDateTime":"2025-01-19","performer":[{"display":"The Central European Lab"}],"valueQuantity":{"value":26.8,"unit":"pg","system":"http://unitsofmeasure.org","code":"785-6"},"interpretation":[{"coding":[{"system":"http://terminology.hl7.org/CodeSystem/v3-ObservationInterpretation","code":"L","display":"Low"}]}],"referenceRange":[{"low":{"value":27,"system":"http://unitsofmeasure.org","code":"pg"}},{"high":{"value":33,"system":"http://unitsofmeasure.org","code":"pg"}}]}},{"fullUrl":"urn:uuid:948680dd-d2bf-4da4-b8a2-94f5e8455356","resource":{"resourceType":"Observation","id":"948680dd-d2bf-4da4-b8a2-94f5e8455356","meta":{"profile":["http://hl7.eu/fhir/laboratory/StructureDefinition/Observation-resultslab-eu-lab"]},"text":{"status":"generated","div":"<div xmlns=\"http://www.w3.org/1999/xhtml\"><a name=\"Observation_948680dd-d2bf-4da4-b8a2-94f5e8455356\"> </a><p class=\"res-header-id\"><b>Generated Narrative: Observation 948680dd-d2bf-4da4-b8a2-94f5e8455356</b></p><a name=\"948680dd-d2bf-4da4-b8a2-94f5e8455356\"> </a><a name=\"hc948680dd-d2bf-4da4-b8a2-94f5e8455356\"> </a><div style=\"display: inline-block; background-color: #d9e0e7; padding: 6px; margin: 4px; border: 1px solid #8da1b4; border-radius: 5px; line-height: 60%\"><p style=\"margin-bottom: 0px\"/><p style=\"margin-bottom: 0px\">Profile: <a href=\"http://hl7.eu/fhir/laboratory/0.1.1/StructureDefinition-Observation-resultslab-eu-lab.html\">Observation Results: laboratory</a></p></div><p><b>status</b>: Final</p><p><b>category</b>: <span title=\"Codes:{http://terminology.hl7.org/CodeSystem/observation-category laboratory}\">Laboratory</span></p><p><b>code</b>: <span title=\"Codes:{http://loinc.org 786-4}\">MCHC [Mass/volume] by Automated count</span></p><p><b>subject</b>: <a href=\"Bundle-Instance-Bundle-77013a3f-bd32-4284-a08f-77750c8705bf.html#urn-uuid-0608e4bf-c598-48e0-ae7b-20e52fa2158f\">Ida Exel Female, DoB: 1944-04-22 ( Jurisdictional health number)</a></p><p><b>effective</b>: 2025-01-19</p><p><b>performer</b>: The Central European Lab</p><p><b>value</b>: 33.5 g/dL<span style=\"background: LightGoldenRodYellow\"> (Details: UCUM  code786-4 = '786-4')</span></p><h3>ReferenceRanges</h3><table class=\"grid\"><tr><td style=\"display: none\">-</td><td><b>Low</b></td><td><b>High</b></td></tr><tr><td style=\"display: none\">*</td><td>31 g/dL<span style=\"background: LightGoldenRodYellow\"> (Details: UCUM  codeg/dL = 'g/dL')</span></td><td> </td></tr><tr><td style=\"display: none\">*</td><td> </td><td>35 g/dL<span style=\"background: LightGoldenRodYellow\"> (Details: UCUM  codeg/dL = 'g/dL')</span></td></tr></table></div>"},"status":"final","category":[{"coding":[{"system":"http://terminology.hl7.org/CodeSystem/observation-category","code":"laboratory"}]}],"code":{"coding":[{"system":"http://loinc.org","code":"786-4","display":"MCHC [Mass/volume] by Automated count"}],"text":"MCHC [Mass/volume] by Automated count"},"subject":{"reference":"urn:uuid:0608e4bf-c598-48e0-ae7b-20e52fa2158f"},"effectiveDateTime":"2025-01-19","performer":[{"display":"The Central European Lab"}],"valueQuantity":{"value":33.5,"unit":"g/dL","system":"http://unitsofmeasure.org","code":"786-4"},"referenceRange":[{"low":{"value":31,"system":"http://unitsofmeasure.org","code":"g/dL"}},{"high":{"value":35,"system":"http://unitsofmeasure.org","code":"g/dL"}}]}},{"fullUrl":"urn:uuid:a245a5f4-ccf4-411e-9585-d877440de4e7","resource":{"resourceType":"Observation","id":"a245a5f4-ccf4-411e-9585-d877440de4e7","meta":{"profile":["http://hl7.eu/fhir/laboratory/StructureDefinition/Observation-resultslab-eu-lab"]},"text":{"status":"generated","div":"<div xmlns=\"http://www.w3.org/1999/xhtml\"><a name=\"Observation_a245a5f4-ccf4-411e-9585-d877440de4e7\"> </a><p class=\"res-header-id\"><b>Generated Narrative: Observation a245a5f4-ccf4-411e-9585-d877440de4e7</b></p><a name=\"a245a5f4-ccf4-411e-9585-d877440de4e7\"> </a><a name=\"hca245a5f4-ccf4-411e-9585-d877440de4e7\"> </a><div style=\"display: inline-block; background-color: #d9e0e7; padding: 6px; margin: 4px; border: 1px solid #8da1b4; border-radius: 5px; line-height: 60%\"><p style=\"margin-bottom: 0px\"/><p style=\"margin-bottom: 0px\">Profile: <a href=\"http://hl7.eu/fhir/laboratory/0.1.1/StructureDefinition-Observation-resultslab-eu-lab.html\">Observation Results: laboratory</a></p></div><p><b>status</b>: Final</p><p><b>category</b>: <span title=\"Codes:{http://terminology.hl7.org/CodeSystem/observation-category laboratory}\">Laboratory</span></p><p><b>code</b>: <span title=\"Codes:{http://loinc.org 788-0}\">Erythrocyte distribution width [Ratio] by Automated count</span></p><p><b>subject</b>: <a href=\"Bundle-Instance-Bundle-77013a3f-bd32-4284-a08f-77750c8705bf.html#urn-uuid-0608e4bf-c598-48e0-ae7b-20e52fa2158f\">Ida Exel Female, DoB: 1944-04-22 ( Jurisdictional health number)</a></p><p><b>effective</b>: 2025-01-19</p><p><b>performer</b>: The Central European Lab</p><p><b>value</b>: 12.5 %<span style=\"background: LightGoldenRodYellow\"> (Details: UCUM  code788-0 = '788-0')</span></p><h3>ReferenceRanges</h3><table class=\"grid\"><tr><td style=\"display: none\">-</td><td><b>Low</b></td><td><b>High</b></td></tr><tr><td style=\"display: none\">*</td><td>11.5 %<span style=\"background: LightGoldenRodYellow\"> (Details: UCUM  code% = '%')</span></td><td> </td></tr><tr><td style=\"display: none\">*</td><td> </td><td>15.5 %<span style=\"background: LightGoldenRodYellow\"> (Details: UCUM  code% = '%')</span></td></tr></table></div>"},"status":"final","category":[{"coding":[{"system":"http://terminology.hl7.org/CodeSystem/observation-category","code":"laboratory"}]}],"code":{"coding":[{"system":"http://loinc.org","code":"788-0","display":"Erythrocyte distribution width [Ratio] by Automated count"}],"text":"Erythrocyte distribution width [Ratio] by Automated count"},"subject":{"reference":"urn:uuid:0608e4bf-c598-48e0-ae7b-20e52fa2158f"},"effectiveDateTime":"2025-01-19","performer":[{"display":"The Central European Lab"}],"valueQuantity":{"value":12.5,"unit":"%","system":"http://unitsofmeasure.org","code":"788-0"},"referenceRange":[{"low":{"value":11.5,"system":"http://unitsofmeasure.org","code":"%"}},{"high":{"value":15.5,"system":"http://unitsofmeasure.org","code":"%"}}]}},{"fullUrl":"urn:uuid:d128486a-1492-4870-9be6-5768630a1eb9","resource":{"resourceType":"Observation","id":"d128486a-1492-4870-9be6-5768630a1eb9","meta":{"profile":["http://hl7.eu/fhir/laboratory/StructureDefinition/Observation-resultslab-eu-lab"]},"text":{"status":"generated","div":"<div xmlns=\"http://www.w3.org/1999/xhtml\"><a name=\"Observation_d128486a-1492-4870-9be6-5768630a1eb9\"> </a><p class=\"res-header-id\"><b>Generated Narrative: Observation d128486a-1492-4870-9be6-5768630a1eb9</b></p><a name=\"d128486a-1492-4870-9be6-5768630a1eb9\"> </a><a name=\"hcd128486a-1492-4870-9be6-5768630a1eb9\"> </a><div style=\"display: inline-block; background-color: #d9e0e7; padding: 6px; margin: 4px; border: 1px solid #8da1b4; border-radius: 5px; line-height: 60%\"><p style=\"margin-bottom: 0px\"/><p style=\"margin-bottom: 0px\">Profile: <a href=\"http://hl7.eu/fhir/laboratory/0.1.1/StructureDefinition-Observation-resultslab-eu-lab.html\">Observation Results: laboratory</a></p></div><p><b>status</b>: Final</p><p><b>category</b>: <span title=\"Codes:{http://terminology.hl7.org/CodeSystem/observation-category laboratory}\">Laboratory</span></p><p><b>code</b>: <span title=\"Codes:{http://loinc.org 777-3}\">Platelets [#/volume] in Blood by Automated count</span></p><p><b>subject</b>: <a href=\"Bundle-Instance-Bundle-77013a3f-bd32-4284-a08f-77750c8705bf.html#urn-uuid-0608e4bf-c598-48e0-ae7b-20e52fa2158f\">Ida Exel Female, DoB: 1944-04-22 ( Jurisdictional health number)</a></p><p><b>effective</b>: 2025-01-19</p><p><b>performer</b>: The Central European Lab</p><p><b>value</b>: 219.4 10*3/uL<span style=\"background: LightGoldenRodYellow\"> (Details: UCUM  code777-3 = '777-3')</span></p><h3>ReferenceRanges</h3><table class=\"grid\"><tr><td style=\"display: none\">-</td><td><b>Low</b></td><td><b>High</b></td></tr><tr><td style=\"display: none\">*</td><td>157 10*3/uL<span style=\"background: LightGoldenRodYellow\"> (Details: UCUM  code10*3/uL = '10*3/uL')</span></td><td> </td></tr><tr><td style=\"display: none\">*</td><td> </td><td>415 10*3/uL<span style=\"background: LightGoldenRodYellow\"> (Details: UCUM  code10*3/uL = '10*3/uL')</span></td></tr></table></div>"},"status":"final","category":[{"coding":[{"system":"http://terminology.hl7.org/CodeSystem/observation-category","code":"laboratory"}]}],"code":{"coding":[{"system":"http://loinc.org","code":"777-3","display":"Platelets [#/volume] in Blood by Automated count"}],"text":"Platelets [#/volume] in Blood by Automated count"},"subject":{"reference":"urn:uuid:0608e4bf-c598-48e0-ae7b-20e52fa2158f"},"effectiveDateTime":"2025-01-19","performer":[{"display":"The Central European Lab"}],"valueQuantity":{"value":219.4,"unit":"10*3/uL","system":"http://unitsofmeasure.org","code":"777-3"},"referenceRange":[{"low":{"value":157,"system":"http://unitsofmeasure.org","code":"10*3/uL"}},{"high":{"value":415,"system":"http://unitsofmeasure.org","code":"10*3/uL"}}]}},{"fullUrl":"urn:uuid:f96a0add-af9f-46a2-99e9-c0a13009d9ec","resource":{"resourceType":"Observation","id":"f96a0add-af9f-46a2-99e9-c0a13009d9ec","meta":{"profile":["http://hl7.eu/fhir/laboratory/StructureDefinition/Observation-resultslab-eu-lab"]},"text":{"status":"generated","div":"<div xmlns=\"http://www.w3.org/1999/xhtml\"><a name=\"Observation_f96a0add-af9f-46a2-99e9-c0a13009d9ec\"> </a><p class=\"res-header-id\"><b>Generated Narrative: Observation f96a0add-af9f-46a2-99e9-c0a13009d9ec</b></p><a name=\"f96a0add-af9f-46a2-99e9-c0a13009d9ec\"> </a><a name=\"hcf96a0add-af9f-46a2-99e9-c0a13009d9ec\"> </a><div style=\"display: inline-block; background-color: #d9e0e7; padding: 6px; margin: 4px; border: 1px solid #8da1b4; border-radius: 5px; line-height: 60%\"><p style=\"margin-bottom: 0px\"/><p style=\"margin-bottom: 0px\">Profile: <a href=\"http://hl7.eu/fhir/laboratory/0.1.1/StructureDefinition-Observation-resultslab-eu-lab.html\">Observation Results: laboratory</a></p></div><p><b>status</b>: Final</p><p><b>category</b>: <span title=\"Codes:{http://terminology.hl7.org/CodeSystem/observation-category laboratory}\">Laboratory</span></p><p><b>code</b>: <span title=\"Codes:{http://loinc.org 2345-7}\">Glucose [Mass/volume] in Serum or Plasma</span></p><p><b>subject</b>: <a href=\"Bundle-Instance-Bundle-77013a3f-bd32-4284-a08f-77750c8705bf.html#urn-uuid-0608e4bf-c598-48e0-ae7b-20e52fa2158f\">Ida Exel Female, DoB: 1944-04-22 ( Jurisdictional health number)</a></p><p><b>effective</b>: 2025-01-19</p><p><b>performer</b>: The Central European Lab</p><p><b>value</b>: 64.2 mg/dL<span style=\"background: LightGoldenRodYellow\"> (Details: UCUM  code2345-7 = '2345-7')</span></p><p><b>interpretation</b>: <span title=\"Codes:{http://terminology.hl7.org/CodeSystem/v3-ObservationInterpretation L}\">Low</span></p><h3>ReferenceRanges</h3><table class=\"grid\"><tr><td style=\"display: none\">-</td><td><b>Low</b></td><td><b>High</b></td></tr><tr><td style=\"display: none\">*</td><td>70 mg/dL<span style=\"background: LightGoldenRodYellow\"> (Details: UCUM  codemg/dL = 'mg/dL')</span></td><td> </td></tr><tr><td style=\"display: none\">*</td><td> </td><td>139 mg/dL<span style=\"background: LightGoldenRodYellow\"> (Details: UCUM  codemg/dL = 'mg/dL')</span></td></tr></table></div>"},"status":"final","category":[{"coding":[{"system":"http://terminology.hl7.org/CodeSystem/observation-category","code":"laboratory"}]}],"code":{"coding":[{"system":"http://loinc.org","code":"2345-7","display":"Glucose [Mass/volume] in Serum or Plasma"}],"text":"Glucose [Mass/volume] in Serum or Plasma"},"subject":{"reference":"urn:uuid:0608e4bf-c598-48e0-ae7b-20e52fa2158f"},"effectiveDateTime":"2025-01-19","performer":[{"display":"The Central European Lab"}],"valueQuantity":{"value":64.2,"unit":"mg/dL","system":"http://unitsofmeasure.org","code":"2345-7"},"interpretation":[{"coding":[{"system":"http://terminology.hl7.org/CodeSystem/v3-ObservationInterpretation","code":"L","display":"Low"}]}],"referenceRange":[{"low":{"value":70,"system":"http://unitsofmeasure.org","code":"mg/dL"}},{"high":{"value":139,"system":"http://unitsofmeasure.org","code":"mg/dL"}}]}},{"fullUrl":"urn:uuid:86fceae0-c00d-4170-b556-8df9a521f388","resource":{"resourceType":"Observation","id":"86fceae0-c00d-4170-b556-8df9a521f388","meta":{"profile":["http://hl7.eu/fhir/laboratory/StructureDefinition/Observation-resultslab-eu-lab"]},"text":{"status":"generated","div":"<div xmlns=\"http://www.w3.org/1999/xhtml\"><a name=\"Observation_86fceae0-c00d-4170-b556-8df9a521f388\"> </a><p class=\"res-header-id\"><b>Generated Narrative: Observation 86fceae0-c00d-4170-b556-8df9a521f388</b></p><a name=\"86fceae0-c00d-4170-b556-8df9a521f388\"> </a><a name=\"hc86fceae0-c00d-4170-b556-8df9a521f388\"> </a><div style=\"display: inline-block; background-color: #d9e0e7; padding: 6px; margin: 4px; border: 1px solid #8da1b4; border-radius: 5px; line-height: 60%\"><p style=\"margin-bottom: 0px\"/><p style=\"margin-bottom: 0px\">Profile: <a href=\"http://hl7.eu/fhir/laboratory/0.1.1/StructureDefinition-Observation-resultslab-eu-lab.html\">Observation Results: laboratory</a></p></div><p><b>status</b>: Final</p><p><b>category</b>: <span title=\"Codes:{http://terminology.hl7.org/CodeSystem/observation-category laboratory}\">Laboratory</span></p><p><b>code</b>: <span title=\"Codes:{http://loinc.org 3094-0}\">Urea nitrogen [Mass/volume] in Serum or Plasma</span></p><p><b>subject</b>: <a href=\"Bundle-Instance-Bundle-77013a3f-bd32-4284-a08f-77750c8705bf.html#urn-uuid-0608e4bf-c598-48e0-ae7b-20e52fa2158f\">Ida Exel Female, DoB: 1944-04-22 ( Jurisdictional health number)</a></p><p><b>effective</b>: 2025-01-19</p><p><b>performer</b>: The Central European Lab</p><p><b>value</b>: 17.3 mg/dL<span style=\"background: LightGoldenRodYellow\"> (Details: UCUM  code3094-0 = '3094-0')</span></p><h3>ReferenceRanges</h3><table class=\"grid\"><tr><td style=\"display: none\">-</td><td><b>Low</b></td><td><b>High</b></td></tr><tr><td style=\"display: none\">*</td><td>7 mg/dL<span style=\"background: LightGoldenRodYellow\"> (Details: UCUM  codemg/dL = 'mg/dL')</span></td><td> </td></tr><tr><td style=\"display: none\">*</td><td> </td><td>43 mg/dL<span style=\"background: LightGoldenRodYellow\"> (Details: UCUM  codemg/dL = 'mg/dL')</span></td></tr></table></div>"},"status":"final","category":[{"coding":[{"system":"http://terminology.hl7.org/CodeSystem/observation-category","code":"laboratory"}]}],"code":{"coding":[{"system":"http://loinc.org","code":"3094-0","display":"Urea nitrogen [Mass/volume] in Serum or Plasma"}],"text":"Urea nitrogen [Mass/volume] in Serum or Plasma"},"subject":{"reference":"urn:uuid:0608e4bf-c598-48e0-ae7b-20e52fa2158f"},"effectiveDateTime":"2025-01-19","performer":[{"display":"The Central European Lab"}],"valueQuantity":{"value":17.3,"unit":"mg/dL","system":"http://unitsofmeasure.org","code":"3094-0"},"referenceRange":[{"low":{"value":7,"system":"http://unitsofmeasure.org","code":"mg/dL"}},{"high":{"value":43,"system":"http://unitsofmeasure.org","code":"mg/dL"}}]}},{"fullUrl":"urn:uuid:df9faa36-444b-4b2c-ae25-7cb2d5770355","resource":{"resourceType":"Observation","id":"df9faa36-444b-4b2c-ae25-7cb2d5770355","meta":{"profile":["http://hl7.eu/fhir/laboratory/StructureDefinition/Observation-resultslab-eu-lab"]},"text":{"status":"generated","div":"<div xmlns=\"http://www.w3.org/1999/xhtml\"><a name=\"Observation_df9faa36-444b-4b2c-ae25-7cb2d5770355\"> </a><p class=\"res-header-id\"><b>Generated Narrative: Observation df9faa36-444b-4b2c-ae25-7cb2d5770355</b></p><a name=\"df9faa36-444b-4b2c-ae25-7cb2d5770355\"> </a><a name=\"hcdf9faa36-444b-4b2c-ae25-7cb2d5770355\"> </a><div style=\"display: inline-block; background-color: #d9e0e7; padding: 6px; margin: 4px; border: 1px solid #8da1b4; border-radius: 5px; line-height: 60%\"><p style=\"margin-bottom: 0px\"/><p style=\"margin-bottom: 0px\">Profile: <a href=\"http://hl7.eu/fhir/laboratory/0.1.1/StructureDefinition-Observation-resultslab-eu-lab.html\">Observation Results: laboratory</a></p></div><p><b>status</b>: Final</p><p><b>category</b>: <span title=\"Codes:{http://terminology.hl7.org/CodeSystem/observation-category laboratory}\">Laboratory</span></p><p><b>code</b>: <span title=\"Codes:{http://loinc.org 2160-0}\">Creatinine [Mass/volume] in Serum or Plasma</span></p><p><b>subject</b>: <a href=\"Bundle-Instance-Bundle-77013a3f-bd32-4284-a08f-77750c8705bf.html#urn-uuid-0608e4bf-c598-48e0-ae7b-20e52fa2158f\">Ida Exel Female, DoB: 1944-04-22 ( Jurisdictional health number)</a></p><p><b>effective</b>: 2025-01-19</p><p><b>performer</b>: The Central European Lab</p><p><b>value</b>: 0.5 mg/dL<span style=\"background: LightGoldenRodYellow\"> (Details: UCUM  code2160-0 = '2160-0')</span></p><p><b>interpretation</b>: <span title=\"Codes:{http://terminology.hl7.org/CodeSystem/v3-ObservationInterpretation L}\">Low</span></p><h3>ReferenceRanges</h3><table class=\"grid\"><tr><td style=\"display: none\">-</td><td><b>Low</b></td><td><b>High</b></td></tr><tr><td style=\"display: none\">*</td><td>0.6 mg/dL<span style=\"background: LightGoldenRodYellow\"> (Details: UCUM  codemg/dL = 'mg/dL')</span></td><td> </td></tr><tr><td style=\"display: none\">*</td><td> </td><td>1.1 mg/dL<span style=\"background: LightGoldenRodYellow\"> (Details: UCUM  codemg/dL = 'mg/dL')</span></td></tr></table></div>"},"status":"final","category":[{"coding":[{"system":"http://terminology.hl7.org/CodeSystem/observation-category","code":"laboratory"}]}],"code":{"coding":[{"system":"http://loinc.org","code":"2160-0","display":"Creatinine [Mass/volume] in Serum or Plasma"}],"text":"Creatinine [Mass/volume] in Serum or Plasma"},"subject":{"reference":"urn:uuid:0608e4bf-c598-48e0-ae7b-20e52fa2158f"},"effectiveDateTime":"2025-01-19","performer":[{"display":"The Central European Lab"}],"valueQuantity":{"value":0.5,"unit":"mg/dL","system":"http://unitsofmeasure.org","code":"2160-0"},"interpretation":[{"coding":[{"system":"http://terminology.hl7.org/CodeSystem/v3-ObservationInterpretation","code":"L","display":"Low"}]}],"referenceRange":[{"low":{"value":0.6,"system":"http://unitsofmeasure.org","code":"mg/dL"}},{"high":{"value":1.1,"system":"http://unitsofmeasure.org","code":"mg/dL"}}]}},{"fullUrl":"urn:uuid:68e4f4d5-4743-4e05-a4fb-f227d95b3b89","resource":{"resourceType":"Observation","id":"68e4f4d5-4743-4e05-a4fb-f227d95b3b89","meta":{"profile":["http://hl7.eu/fhir/laboratory/StructureDefinition/Observation-resultslab-eu-lab"]},"text":{"status":"generated","div":"<div xmlns=\"http://www.w3.org/1999/xhtml\"><a name=\"Observation_68e4f4d5-4743-4e05-a4fb-f227d95b3b89\"> </a><p class=\"res-header-id\"><b>Generated Narrative: Observation 68e4f4d5-4743-4e05-a4fb-f227d95b3b89</b></p><a name=\"68e4f4d5-4743-4e05-a4fb-f227d95b3b89\"> </a><a name=\"hc68e4f4d5-4743-4e05-a4fb-f227d95b3b89\"> </a><div style=\"display: inline-block; background-color: #d9e0e7; padding: 6px; margin: 4px; border: 1px solid #8da1b4; border-radius: 5px; line-height: 60%\"><p style=\"margin-bottom: 0px\"/><p style=\"margin-bottom: 0px\">Profile: <a href=\"http://hl7.eu/fhir/laboratory/0.1.1/StructureDefinition-Observation-resultslab-eu-lab.html\">Observation Results: laboratory</a></p></div><p><b>status</b>: Final</p><p><b>category</b>: <span title=\"Codes:{http://terminology.hl7.org/CodeSystem/observation-category laboratory}\">Laboratory</span></p><p><b>code</b>: <span title=\"Codes:{http://loinc.org 17861-6}\">Calcium [Mass/volume] in Serum or Plasma</span></p><p><b>subject</b>: <a href=\"Bundle-Instance-Bundle-77013a3f-bd32-4284-a08f-77750c8705bf.html#urn-uuid-0608e4bf-c598-48e0-ae7b-20e52fa2158f\">Ida Exel Female, DoB: 1944-04-22 ( Jurisdictional health number)</a></p><p><b>effective</b>: 2025-01-19</p><p><b>performer</b>: The Central European Lab</p><p><b>value</b>: 8.6 mg/dL<span style=\"background: LightGoldenRodYellow\"> (Details: UCUM  code17861-6 = '17861-6')</span></p><h3>ReferenceRanges</h3><table class=\"grid\"><tr><td style=\"display: none\">-</td><td><b>Low</b></td><td><b>High</b></td></tr><tr><td style=\"display: none\">*</td><td>8.6 mg/dL<span style=\"background: LightGoldenRodYellow\"> (Details: UCUM  codemg/dL = 'mg/dL')</span></td><td> </td></tr><tr><td style=\"display: none\">*</td><td> </td><td>10.4 mg/dL<span style=\"background: LightGoldenRodYellow\"> (Details: UCUM  codemg/dL = 'mg/dL')</span></td></tr></table></div>"},"status":"final","category":[{"coding":[{"system":"http://terminology.hl7.org/CodeSystem/observation-category","code":"laboratory"}]}],"code":{"coding":[{"system":"http://loinc.org","code":"17861-6","display":"Calcium [Mass/volume] in Serum or Plasma"}],"text":"Calcium [Mass/volume] in Serum or Plasma"},"subject":{"reference":"urn:uuid:0608e4bf-c598-48e0-ae7b-20e52fa2158f"},"effectiveDateTime":"2025-01-19","performer":[{"display":"The Central European Lab"}],"valueQuantity":{"value":8.6,"unit":"mg/dL","system":"http://unitsofmeasure.org","code":"17861-6"},"referenceRange":[{"low":{"value":8.6,"system":"http://unitsofmeasure.org","code":"mg/dL"}},{"high":{"value":10.4,"system":"http://unitsofmeasure.org","code":"mg/dL"}}]}},{"fullUrl":"urn:uuid:1afb033a-c3fd-4ca5-8cce-48ac85947b3e","resource":{"resourceType":"Observation","id":"1afb033a-c3fd-4ca5-8cce-48ac85947b3e","meta":{"profile":["http://hl7.eu/fhir/laboratory/StructureDefinition/Observation-resultslab-eu-lab"]},"text":{"status":"generated","div":"<div xmlns=\"http://www.w3.org/1999/xhtml\"><a name=\"Observation_1afb033a-c3fd-4ca5-8cce-48ac85947b3e\"> </a><p class=\"res-header-id\"><b>Generated Narrative: Observation 1afb033a-c3fd-4ca5-8cce-48ac85947b3e</b></p><a name=\"1afb033a-c3fd-4ca5-8cce-48ac85947b3e\"> </a><a name=\"hc1afb033a-c3fd-4ca5-8cce-48ac85947b3e\"> </a><div style=\"display: inline-block; background-color: #d9e0e7; padding: 6px; margin: 4px; border: 1px solid #8da1b4; border-radius: 5px; line-height: 60%\"><p style=\"margin-bottom: 0px\"/><p style=\"margin-bottom: 0px\">Profile: <a href=\"http://hl7.eu/fhir/laboratory/0.1.1/StructureDefinition-Observation-resultslab-eu-lab.html\">Observation Results: laboratory</a></p></div><p><b>status</b>: Final</p><p><b>category</b>: <span title=\"Codes:{http://terminology.hl7.org/CodeSystem/observation-category laboratory}\">Laboratory</span></p><p><b>code</b>: <span title=\"Codes:{http://loinc.org 2951-2}\">Sodium [Moles/volume] in Serum or Plasma</span></p><p><b>subject</b>: <a href=\"Bundle-Instance-Bundle-77013a3f-bd32-4284-a08f-77750c8705bf.html#urn-uuid-0608e4bf-c598-48e0-ae7b-20e52fa2158f\">Ida Exel Female, DoB: 1944-04-22 ( Jurisdictional health number)</a></p><p><b>effective</b>: 2025-01-19</p><p><b>performer</b>: The Central European Lab</p><p><b>value</b>: 138.8 mmol/L<span style=\"background: LightGoldenRodYellow\"> (Details: UCUM  code2951-2 = '2951-2')</span></p><h3>ReferenceRanges</h3><table class=\"grid\"><tr><td style=\"display: none\">-</td><td><b>Low</b></td><td><b>High</b></td></tr><tr><td style=\"display: none\">*</td><td>135 mmol/L<span style=\"background: LightGoldenRodYellow\"> (Details: UCUM  codemmol/L = 'mmol/L')</span></td><td> </td></tr><tr><td style=\"display: none\">*</td><td> </td><td>145 mmol/L<span style=\"background: LightGoldenRodYellow\"> (Details: UCUM  codemmol/L = 'mmol/L')</span></td></tr></table></div>"},"status":"final","category":[{"coding":[{"system":"http://terminology.hl7.org/CodeSystem/observation-category","code":"laboratory"}]}],"code":{"coding":[{"system":"http://loinc.org","code":"2951-2","display":"Sodium [Moles/volume] in Serum or Plasma"}],"text":"Sodium [Moles/volume] in Serum or Plasma"},"subject":{"reference":"urn:uuid:0608e4bf-c598-48e0-ae7b-20e52fa2158f"},"effectiveDateTime":"2025-01-19","performer":[{"display":"The Central European Lab"}],"valueQuantity":{"value":138.8,"unit":"mmol/L","system":"http://unitsofmeasure.org","code":"2951-2"},"referenceRange":[{"low":{"value":135,"system":"http://unitsofmeasure.org","code":"mmol/L"}},{"high":{"value":145,"system":"http://unitsofmeasure.org","code":"mmol/L"}}]}},{"fullUrl":"urn:uuid:8bf83f28-6ce5-4874-b48f-cdd3ee174353","resource":{"resourceType":"Observation","id":"8bf83f28-6ce5-4874-b48f-cdd3ee174353","meta":{"profile":["http://hl7.eu/fhir/laboratory/StructureDefinition/Observation-resultslab-eu-lab"]},"text":{"status":"generated","div":"<div xmlns=\"http://www.w3.org/1999/xhtml\"><a name=\"Observation_8bf83f28-6ce5-4874-b48f-cdd3ee174353\"> </a><p class=\"res-header-id\"><b>Generated Narrative: Observation 8bf83f28-6ce5-4874-b48f-cdd3ee174353</b></p><a name=\"8bf83f28-6ce5-4874-b48f-cdd3ee174353\"> </a><a name=\"hc8bf83f28-6ce5-4874-b48f-cdd3ee174353\"> </a><div style=\"display: inline-block; background-color: #d9e0e7; padding: 6px; margin: 4px; border: 1px solid #8da1b4; border-radius: 5px; line-height: 60%\"><p style=\"margin-bottom: 0px\"/><p style=\"margin-bottom: 0px\">Profile: <a href=\"http://hl7.eu/fhir/laboratory/0.1.1/StructureDefinition-Observation-resultslab-eu-lab.html\">Observation Results: laboratory</a></p></div><p><b>status</b>: Final</p><p><b>category</b>: <span title=\"Codes:{http://terminology.hl7.org/CodeSystem/observation-category laboratory}\">Laboratory</span></p><p><b>code</b>: <span title=\"Codes:{http://loinc.org 2823-3}\">Potassium [Moles/volume] in Serum or Plasma</span></p><p><b>subject</b>: <a href=\"Bundle-Instance-Bundle-77013a3f-bd32-4284-a08f-77750c8705bf.html#urn-uuid-0608e4bf-c598-48e0-ae7b-20e52fa2158f\">Ida Exel Female, DoB: 1944-04-22 ( Jurisdictional health number)</a></p><p><b>effective</b>: 2025-01-19</p><p><b>performer</b>: The Central European Lab</p><p><b>value</b>: 3.7 mmol/L<span style=\"background: LightGoldenRodYellow\"> (Details: UCUM  code2823-3 = '2823-3')</span></p><h3>ReferenceRanges</h3><table class=\"grid\"><tr><td style=\"display: none\">-</td><td><b>Low</b></td><td><b>High</b></td></tr><tr><td style=\"display: none\">*</td><td>3.5 mmol/L<span style=\"background: LightGoldenRodYellow\"> (Details: UCUM  codemmol/L = 'mmol/L')</span></td><td> </td></tr><tr><td style=\"display: none\">*</td><td> </td><td>5.1 mmol/L<span style=\"background: LightGoldenRodYellow\"> (Details: UCUM  codemmol/L = 'mmol/L')</span></td></tr></table></div>"},"status":"final","category":[{"coding":[{"system":"http://terminology.hl7.org/CodeSystem/observation-category","code":"laboratory"}]}],"code":{"coding":[{"system":"http://loinc.org","code":"2823-3","display":"Potassium [Moles/volume] in Serum or Plasma"}],"text":"Potassium [Moles/volume] in Serum or Plasma"},"subject":{"reference":"urn:uuid:0608e4bf-c598-48e0-ae7b-20e52fa2158f"},"effectiveDateTime":"2025-01-19","performer":[{"display":"The Central European Lab"}],"valueQuantity":{"value":3.7,"unit":"mmol/L","system":"http://unitsofmeasure.org","code":"2823-3"},"referenceRange":[{"low":{"value":3.5,"system":"http://unitsofmeasure.org","code":"mmol/L"}},{"high":{"value":5.1,"system":"http://unitsofmeasure.org","code":"mmol/L"}}]}},{"fullUrl":"urn:uuid:7bca456b-f0c4-4ba9-a46b-4c3559c3844d","resource":{"resourceType":"Observation","id":"7bca456b-f0c4-4ba9-a46b-4c3559c3844d","meta":{"profile":["http://hl7.eu/fhir/laboratory/StructureDefinition/Observation-resultslab-eu-lab"]},"text":{"status":"generated","div":"<div xmlns=\"http://www.w3.org/1999/xhtml\"><a name=\"Observation_7bca456b-f0c4-4ba9-a46b-4c3559c3844d\"> </a><p class=\"res-header-id\"><b>Generated Narrative: Observation 7bca456b-f0c4-4ba9-a46b-4c3559c3844d</b></p><a name=\"7bca456b-f0c4-4ba9-a46b-4c3559c3844d\"> </a><a name=\"hc7bca456b-f0c4-4ba9-a46b-4c3559c3844d\"> </a><div style=\"display: inline-block; background-color: #d9e0e7; padding: 6px; margin: 4px; border: 1px solid #8da1b4; border-radius: 5px; line-height: 60%\"><p style=\"margin-bottom: 0px\"/><p style=\"margin-bottom: 0px\">Profile: <a href=\"http://hl7.eu/fhir/laboratory/0.1.1/StructureDefinition-Observation-resultslab-eu-lab.html\">Observation Results: laboratory</a></p></div><p><b>status</b>: Final</p><p><b>category</b>: <span title=\"Codes:{http://terminology.hl7.org/CodeSystem/observation-category laboratory}\">Laboratory</span></p><p><b>code</b>: <span title=\"Codes:{http://loinc.org 2075-0}\">Chloride [Moles/volume] in Serum or Plasma</span></p><p><b>subject</b>: <a href=\"Bundle-Instance-Bundle-77013a3f-bd32-4284-a08f-77750c8705bf.html#urn-uuid-0608e4bf-c598-48e0-ae7b-20e52fa2158f\">Ida Exel Female, DoB: 1944-04-22 ( Jurisdictional health number)</a></p><p><b>effective</b>: 2025-01-19</p><p><b>performer</b>: The Central European Lab</p><p><b>value</b>: 108.9 mmol/L<span style=\"background: LightGoldenRodYellow\"> (Details: UCUM  code2075-0 = '2075-0')</span></p><p><b>interpretation</b>: <span title=\"Codes:{http://terminology.hl7.org/CodeSystem/v3-ObservationInterpretation H}\">High</span></p><h3>ReferenceRanges</h3><table class=\"grid\"><tr><td style=\"display: none\">-</td><td><b>Low</b></td><td><b>High</b></td></tr><tr><td style=\"display: none\">*</td><td>98 mmol/L<span style=\"background: LightGoldenRodYellow\"> (Details: UCUM  codemmol/L = 'mmol/L')</span></td><td> </td></tr><tr><td style=\"display: none\">*</td><td> </td><td>108 mmol/L<span style=\"background: LightGoldenRodYellow\"> (Details: UCUM  codemmol/L = 'mmol/L')</span></td></tr></table></div>"},"status":"final","category":[{"coding":[{"system":"http://terminology.hl7.org/CodeSystem/observation-category","code":"laboratory"}]}],"code":{"coding":[{"system":"http://loinc.org","code":"2075-0","display":"Chloride [Moles/volume] in Serum or Plasma"}],"text":"Chloride [Moles/volume] in Serum or Plasma"},"subject":{"reference":"urn:uuid:0608e4bf-c598-48e0-ae7b-20e52fa2158f"},"effectiveDateTime":"2025-01-19","performer":[{"display":"The Central European Lab"}],"valueQuantity":{"value":108.9,"unit":"mmol/L","system":"http://unitsofmeasure.org","code":"2075-0"},"interpretation":[{"coding":[{"system":"http://terminology.hl7.org/CodeSystem/v3-ObservationInterpretation","code":"H","display":"High"}]}],"referenceRange":[{"low":{"value":98,"system":"http://unitsofmeasure.org","code":"mmol/L"}},{"high":{"value":108,"system":"http://unitsofmeasure.org","code":"mmol/L"}}]}},{"fullUrl":"urn:uuid:4b379c16-6c59-415f-9396-6f6ffd9477aa","resource":{"resourceType":"Observation","id":"4b379c16-6c59-415f-9396-6f6ffd9477aa","meta":{"profile":["http://hl7.eu/fhir/laboratory/StructureDefinition/Observation-resultslab-eu-lab"]},"text":{"status":"generated","div":"<div xmlns=\"http://www.w3.org/1999/xhtml\"><a name=\"Observation_4b379c16-6c59-415f-9396-6f6ffd9477aa\"> </a><p class=\"res-header-id\"><b>Generated Narrative: Observation 4b379c16-6c59-415f-9396-6f6ffd9477aa</b></p><a name=\"4b379c16-6c59-415f-9396-6f6ffd9477aa\"> </a><a name=\"hc4b379c16-6c59-415f-9396-6f6ffd9477aa\"> </a><div style=\"display: inline-block; background-color: #d9e0e7; padding: 6px; margin: 4px; border: 1px solid #8da1b4; border-radius: 5px; line-height: 60%\"><p style=\"margin-bottom: 0px\"/><p style=\"margin-bottom: 0px\">Profile: <a href=\"http://hl7.eu/fhir/laboratory/0.1.1/StructureDefinition-Observation-resultslab-eu-lab.html\">Observation Results: laboratory</a></p></div><p><b>status</b>: Final</p><p><b>category</b>: <span title=\"Codes:{http://terminology.hl7.org/CodeSystem/observation-category laboratory}\">Laboratory</span></p><p><b>code</b>: <span title=\"Codes:{http://loinc.org 2028-9}\">Carbon dioxide, total [Moles/volume] in Serum or Plasma</span></p><p><b>subject</b>: <a href=\"Bundle-Instance-Bundle-77013a3f-bd32-4284-a08f-77750c8705bf.html#urn-uuid-0608e4bf-c598-48e0-ae7b-20e52fa2158f\">Ida Exel Female, DoB: 1944-04-22 ( Jurisdictional health number)</a></p><p><b>effective</b>: 2025-01-19</p><p><b>performer</b>: The Central European Lab</p><p><b>value</b>: 20.4 mmol/L<span style=\"background: LightGoldenRodYellow\"> (Details: UCUM  code2028-9 = '2028-9')</span></p><p><b>interpretation</b>: <span title=\"Codes:{http://terminology.hl7.org/CodeSystem/v3-ObservationInterpretation L}\">Low</span></p><h3>ReferenceRanges</h3><table class=\"grid\"><tr><td style=\"display: none\">-</td><td><b>Low</b></td><td><b>High</b></td></tr><tr><td style=\"display: none\">*</td><td>22 mmol/L<span style=\"background: LightGoldenRodYellow\"> (Details: UCUM  codemmol/L = 'mmol/L')</span></td><td> </td></tr><tr><td style=\"display: none\">*</td><td> </td><td>29 mmol/L<span style=\"background: LightGoldenRodYellow\"> (Details: UCUM  codemmol/L = 'mmol/L')</span></td></tr></table></div>"},"status":"final","category":[{"coding":[{"system":"http://terminology.hl7.org/CodeSystem/observation-category","code":"laboratory"}]}],"code":{"coding":[{"system":"http://loinc.org","code":"2028-9","display":"Carbon dioxide, total [Moles/volume] in Serum or Plasma"}],"text":"Carbon dioxide, total [Moles/volume] in Serum or Plasma"},"subject":{"reference":"urn:uuid:0608e4bf-c598-48e0-ae7b-20e52fa2158f"},"effectiveDateTime":"2025-01-19","performer":[{"display":"The Central European Lab"}],"valueQuantity":{"value":20.4,"unit":"mmol/L","system":"http://unitsofmeasure.org","code":"2028-9"},"interpretation":[{"coding":[{"system":"http://terminology.hl7.org/CodeSystem/v3-ObservationInterpretation","code":"L","display":"Low"}]}],"referenceRange":[{"low":{"value":22,"system":"http://unitsofmeasure.org","code":"mmol/L"}},{"high":{"value":29,"system":"http://unitsofmeasure.org","code":"mmol/L"}}]}},{"fullUrl":"urn:uuid:fc37b351-b501-46a8-a5b5-d274430b36eb","resource":{"resourceType":"Observation","id":"fc37b351-b501-46a8-a5b5-d274430b36eb","meta":{"profile":["http://hl7.eu/fhir/laboratory/StructureDefinition/Observation-resultslab-eu-lab"]},"text":{"status":"generated","div":"<div xmlns=\"http://www.w3.org/1999/xhtml\"><a name=\"Observation_fc37b351-b501-46a8-a5b5-d274430b36eb\"> </a><p class=\"res-header-id\"><b>Generated Narrative: Observation fc37b351-b501-46a8-a5b5-d274430b36eb</b></p><a name=\"fc37b351-b501-46a8-a5b5-d274430b36eb\"> </a><a name=\"hcfc37b351-b501-46a8-a5b5-d274430b36eb\"> </a><div style=\"display: inline-block; background-color: #d9e0e7; padding: 6px; margin: 4px; border: 1px solid #8da1b4; border-radius: 5px; line-height: 60%\"><p style=\"margin-bottom: 0px\"/><p style=\"margin-bottom: 0px\">Profile: <a href=\"http://hl7.eu/fhir/laboratory/0.1.1/StructureDefinition-Observation-resultslab-eu-lab.html\">Observation Results: laboratory</a></p></div><p><b>status</b>: Final</p><p><b>category</b>: <span title=\"Codes:{http://terminology.hl7.org/CodeSystem/observation-category laboratory}\">Laboratory</span></p><p><b>code</b>: <span title=\"Codes:{http://loinc.org 2885-2}\">Protein [Mass/volume] in Serum or Plasma</span></p><p><b>subject</b>: <a href=\"Bundle-Instance-Bundle-77013a3f-bd32-4284-a08f-77750c8705bf.html#urn-uuid-0608e4bf-c598-48e0-ae7b-20e52fa2158f\">Ida Exel Female, DoB: 1944-04-22 ( Jurisdictional health number)</a></p><p><b>effective</b>: 2025-01-19</p><p><b>performer</b>: The Central European Lab</p><p><b>value</b>: 6.4 g/dL<span style=\"background: LightGoldenRodYellow\"> (Details: UCUM  code2885-2 = '2885-2')</span></p><h3>ReferenceRanges</h3><table class=\"grid\"><tr><td style=\"display: none\">-</td><td><b>Low</b></td><td><b>High</b></td></tr><tr><td style=\"display: none\">*</td><td>6 g/dL<span style=\"background: LightGoldenRodYellow\"> (Details: UCUM  codeg/dL = 'g/dL')</span></td><td> </td></tr><tr><td style=\"display: none\">*</td><td> </td><td>8.3 g/dL<span style=\"background: LightGoldenRodYellow\"> (Details: UCUM  codeg/dL = 'g/dL')</span></td></tr></table></div>"},"status":"final","category":[{"coding":[{"system":"http://terminology.hl7.org/CodeSystem/observation-category","code":"laboratory"}]}],"code":{"coding":[{"system":"http://loinc.org","code":"2885-2","display":"Protein [Mass/volume] in Serum or Plasma"}],"text":"Protein [Mass/volume] in Serum or Plasma"},"subject":{"reference":"urn:uuid:0608e4bf-c598-48e0-ae7b-20e52fa2158f"},"effectiveDateTime":"2025-01-19","performer":[{"display":"The Central European Lab"}],"valueQuantity":{"value":6.4,"unit":"g/dL","system":"http://unitsofmeasure.org","code":"2885-2"},"referenceRange":[{"low":{"value":6,"system":"http://unitsofmeasure.org","code":"g/dL"}},{"high":{"value":8.3,"system":"http://unitsofmeasure.org","code":"g/dL"}}]}},{"fullUrl":"urn:uuid:7dcb7577-3b3e-4a4b-aabd-2b300c8dd319","resource":{"resourceType":"Observation","id":"7dcb7577-3b3e-4a4b-aabd-2b300c8dd319","meta":{"profile":["http://hl7.eu/fhir/laboratory/StructureDefinition/Observation-resultslab-eu-lab"]},"text":{"status":"generated","div":"<div xmlns=\"http://www.w3.org/1999/xhtml\"><a name=\"Observation_7dcb7577-3b3e-4a4b-aabd-2b300c8dd319\"> </a><p class=\"res-header-id\"><b>Generated Narrative: Observation 7dcb7577-3b3e-4a4b-aabd-2b300c8dd319</b></p><a name=\"7dcb7577-3b3e-4a4b-aabd-2b300c8dd319\"> </a><a name=\"hc7dcb7577-3b3e-4a4b-aabd-2b300c8dd319\"> </a><div style=\"display: inline-block; background-color: #d9e0e7; padding: 6px; margin: 4px; border: 1px solid #8da1b4; border-radius: 5px; line-height: 60%\"><p style=\"margin-bottom: 0px\"/><p style=\"margin-bottom: 0px\">Profile: <a href=\"http://hl7.eu/fhir/laboratory/0.1.1/StructureDefinition-Observation-resultslab-eu-lab.html\">Observation Results: laboratory</a></p></div><p><b>status</b>: Final</p><p><b>category</b>: <span title=\"Codes:{http://terminology.hl7.org/CodeSystem/observation-category laboratory}\">Laboratory</span></p><p><b>code</b>: <span title=\"Codes:{http://loinc.org 1751-7}\">Albumin [Mass/volume] in Serum or Plasma</span></p><p><b>subject</b>: <a href=\"Bundle-Instance-Bundle-77013a3f-bd32-4284-a08f-77750c8705bf.html#urn-uuid-0608e4bf-c598-48e0-ae7b-20e52fa2158f\">Ida Exel Female, DoB: 1944-04-22 ( Jurisdictional health number)</a></p><p><b>effective</b>: 2025-01-19</p><p><b>performer</b>: The Central European Lab</p><p><b>value</b>: 4.7 g/dL<span style=\"background: LightGoldenRodYellow\"> (Details: UCUM  code1751-7 = '1751-7')</span></p><h3>ReferenceRanges</h3><table class=\"grid\"><tr><td style=\"display: none\">-</td><td><b>Low</b></td><td><b>High</b></td></tr><tr><td style=\"display: none\">*</td><td>3.5 g/dL<span style=\"background: LightGoldenRodYellow\"> (Details: UCUM  codeg/dL = 'g/dL')</span></td><td> </td></tr><tr><td style=\"display: none\">*</td><td> </td><td>5.5 g/dL<span style=\"background: LightGoldenRodYellow\"> (Details: UCUM  codeg/dL = 'g/dL')</span></td></tr></table></div>"},"status":"final","category":[{"coding":[{"system":"http://terminology.hl7.org/CodeSystem/observation-category","code":"laboratory"}]}],"code":{"coding":[{"system":"http://loinc.org","code":"1751-7","display":"Albumin [Mass/volume] in Serum or Plasma"}],"text":"Albumin [Mass/volume] in Serum or Plasma"},"subject":{"reference":"urn:uuid:0608e4bf-c598-48e0-ae7b-20e52fa2158f"},"effectiveDateTime":"2025-01-19","performer":[{"display":"The Central European Lab"}],"valueQuantity":{"value":4.7,"unit":"g/dL","system":"http://unitsofmeasure.org","code":"1751-7"},"referenceRange":[{"low":{"value":3.5,"system":"http://unitsofmeasure.org","code":"g/dL"}},{"high":{"value":5.5,"system":"http://unitsofmeasure.org","code":"g/dL"}}]}},{"fullUrl":"urn:uuid:6f126eb5-6246-41aa-b248-7f87eaf48e84","resource":{"resourceType":"Observation","id":"6f126eb5-6246-41aa-b248-7f87eaf48e84","meta":{"profile":["http://hl7.eu/fhir/laboratory/StructureDefinition/Observation-resultslab-eu-lab"]},"text":{"status":"generated","div":"<div xmlns=\"http://www.w3.org/1999/xhtml\"><a name=\"Observation_6f126eb5-6246-41aa-b248-7f87eaf48e84\"> </a><p class=\"res-header-id\"><b>Generated Narrative: Observation 6f126eb5-6246-41aa-b248-7f87eaf48e84</b></p><a name=\"6f126eb5-6246-41aa-b248-7f87eaf48e84\"> </a><a name=\"hc6f126eb5-6246-41aa-b248-7f87eaf48e84\"> </a><div style=\"display: inline-block; background-color: #d9e0e7; padding: 6px; margin: 4px; border: 1px solid #8da1b4; border-radius: 5px; line-height: 60%\"><p style=\"margin-bottom: 0px\"/><p style=\"margin-bottom: 0px\">Profile: <a href=\"http://hl7.eu/fhir/laboratory/0.1.1/StructureDefinition-Observation-resultslab-eu-lab.html\">Observation Results: laboratory</a></p></div><p><b>status</b>: Final</p><p><b>category</b>: <span title=\"Codes:{http://terminology.hl7.org/CodeSystem/observation-category laboratory}\">Laboratory</span></p><p><b>code</b>: <span title=\"Codes:{http://loinc.org 1975-2}\">Bilirubin.total [Mass/volume] in Serum or Plasma</span></p><p><b>subject</b>: <a href=\"Bundle-Instance-Bundle-77013a3f-bd32-4284-a08f-77750c8705bf.html#urn-uuid-0608e4bf-c598-48e0-ae7b-20e52fa2158f\">Ida Exel Female, DoB: 1944-04-22 ( Jurisdictional health number)</a></p><p><b>effective</b>: 2025-01-19</p><p><b>performer</b>: The Central European Lab</p><p><b>value</b>: 0.9 mg/dL<span style=\"background: LightGoldenRodYellow\"> (Details: UCUM  code1975-2 = '1975-2')</span></p><h3>ReferenceRanges</h3><table class=\"grid\"><tr><td style=\"display: none\">-</td><td><b>Low</b></td><td><b>High</b></td></tr><tr><td style=\"display: none\">*</td><td>0.3 mg/dL<span style=\"background: LightGoldenRodYellow\"> (Details: UCUM  codemg/dL = 'mg/dL')</span></td><td> </td></tr><tr><td style=\"display: none\">*</td><td> </td><td>1.2 mg/dL<span style=\"background: LightGoldenRodYellow\"> (Details: UCUM  codemg/dL = 'mg/dL')</span></td></tr></table></div>"},"status":"final","category":[{"coding":[{"system":"http://terminology.hl7.org/CodeSystem/observation-category","code":"laboratory"}]}],"code":{"coding":[{"system":"http://loinc.org","code":"1975-2","display":"Bilirubin.total [Mass/volume] in Serum or Plasma"}],"text":"Bilirubin.total [Mass/volume] in Serum or Plasma"},"subject":{"reference":"urn:uuid:0608e4bf-c598-48e0-ae7b-20e52fa2158f"},"effectiveDateTime":"2025-01-19","performer":[{"display":"The Central European Lab"}],"valueQuantity":{"value":0.9,"unit":"mg/dL","system":"http://unitsofmeasure.org","code":"1975-2"},"referenceRange":[{"low":{"value":0.3,"system":"http://unitsofmeasure.org","code":"mg/dL"}},{"high":{"value":1.2,"system":"http://unitsofmeasure.org","code":"mg/dL"}}]}},{"fullUrl":"urn:uuid:b70316e9-db94-4d2e-813d-d2856753200c","resource":{"resourceType":"Observation","id":"b70316e9-db94-4d2e-813d-d2856753200c","meta":{"profile":["http://hl7.eu/fhir/laboratory/StructureDefinition/Observation-resultslab-eu-lab"]},"text":{"status":"generated","div":"<div xmlns=\"http://www.w3.org/1999/xhtml\"><a name=\"Observation_b70316e9-db94-4d2e-813d-d2856753200c\"> </a><p class=\"res-header-id\"><b>Generated Narrative: Observation b70316e9-db94-4d2e-813d-d2856753200c</b></p><a name=\"b70316e9-db94-4d2e-813d-d2856753200c\"> </a><a name=\"hcb70316e9-db94-4d2e-813d-d2856753200c\"> </a><div style=\"display: inline-block; background-color: #d9e0e7; padding: 6px; margin: 4px; border: 1px solid #8da1b4; border-radius: 5px; line-height: 60%\"><p style=\"margin-bottom: 0px\"/><p style=\"margin-bottom: 0px\">Profile: <a href=\"http://hl7.eu/fhir/laboratory/0.1.1/StructureDefinition-Observation-resultslab-eu-lab.html\">Observation Results: laboratory</a></p></div><p><b>status</b>: Final</p><p><b>category</b>: <span title=\"Codes:{http://terminology.hl7.org/CodeSystem/observation-category laboratory}\">Laboratory</span></p><p><b>code</b>: <span title=\"Codes:{http://loinc.org 6768-6}\">Alkaline phosphatase [Enzymatic activity/volume] in Serum or Plasma</span></p><p><b>subject</b>: <a href=\"Bundle-Instance-Bundle-77013a3f-bd32-4284-a08f-77750c8705bf.html#urn-uuid-0608e4bf-c598-48e0-ae7b-20e52fa2158f\">Ida Exel Female, DoB: 1944-04-22 ( Jurisdictional health number)</a></p><p><b>effective</b>: 2025-01-19</p><p><b>performer</b>: The Central European Lab</p><p><b>value</b>: 63.9 U/L<span style=\"background: LightGoldenRodYellow\"> (Details: UCUM  code6768-6 = '6768-6')</span></p><h3>ReferenceRanges</h3><table class=\"grid\"><tr><td style=\"display: none\">-</td><td><b>Low</b></td><td><b>High</b></td></tr><tr><td style=\"display: none\">*</td><td>32 U/L<span style=\"background: LightGoldenRodYellow\"> (Details: UCUM  codeU/L = 'U/L')</span></td><td> </td></tr><tr><td style=\"display: none\">*</td><td> </td><td>150 U/L<span style=\"background: LightGoldenRodYellow\"> (Details: UCUM  codeU/L = 'U/L')</span></td></tr></table></div>"},"status":"final","category":[{"coding":[{"system":"http://terminology.hl7.org/CodeSystem/observation-category","code":"laboratory"}]}],"code":{"coding":[{"system":"http://loinc.org","code":"6768-6","display":"Alkaline phosphatase [Enzymatic activity/volume] in Serum or Plasma"}],"text":"Alkaline phosphatase [Enzymatic activity/volume] in Serum or Plasma"},"subject":{"reference":"urn:uuid:0608e4bf-c598-48e0-ae7b-20e52fa2158f"},"effectiveDateTime":"2025-01-19","performer":[{"display":"The Central European Lab"}],"valueQuantity":{"value":63.9,"unit":"U/L","system":"http://unitsofmeasure.org","code":"6768-6"},"referenceRange":[{"low":{"value":32,"system":"http://unitsofmeasure.org","code":"U/L"}},{"high":{"value":150,"system":"http://unitsofmeasure.org","code":"U/L"}}]}},{"fullUrl":"urn:uuid:f19dfb3d-1ccd-4418-8ccb-753830040267","resource":{"resourceType":"Observation","id":"f19dfb3d-1ccd-4418-8ccb-753830040267","meta":{"profile":["http://hl7.eu/fhir/laboratory/StructureDefinition/Observation-resultslab-eu-lab"]},"text":{"status":"generated","div":"<div xmlns=\"http://www.w3.org/1999/xhtml\"><a name=\"Observation_f19dfb3d-1ccd-4418-8ccb-753830040267\"> </a><p class=\"res-header-id\"><b>Generated Narrative: Observation f19dfb3d-1ccd-4418-8ccb-753830040267</b></p><a name=\"f19dfb3d-1ccd-4418-8ccb-753830040267\"> </a><a name=\"hcf19dfb3d-1ccd-4418-8ccb-753830040267\"> </a><div style=\"display: inline-block; background-color: #d9e0e7; padding: 6px; margin: 4px; border: 1px solid #8da1b4; border-radius: 5px; line-height: 60%\"><p style=\"margin-bottom: 0px\"/><p style=\"margin-bottom: 0px\">Profile: <a href=\"http://hl7.eu/fhir/laboratory/0.1.1/StructureDefinition-Observation-resultslab-eu-lab.html\">Observation Results: laboratory</a></p></div><p><b>status</b>: Final</p><p><b>category</b>: <span title=\"Codes:{http://terminology.hl7.org/CodeSystem/observation-category laboratory}\">Laboratory</span></p><p><b>code</b>: <span title=\"Codes:{http://loinc.org 1742-6}\">Alanine aminotransferase [Enzymatic activity/volume] in Serum or Plasma</span></p><p><b>subject</b>: <a href=\"Bundle-Instance-Bundle-77013a3f-bd32-4284-a08f-77750c8705bf.html#urn-uuid-0608e4bf-c598-48e0-ae7b-20e52fa2158f\">Ida Exel Female, DoB: 1944-04-22 ( Jurisdictional health number)</a></p><p><b>effective</b>: 2025-01-19</p><p><b>performer</b>: The Central European Lab</p><p><b>value</b>: 11.8 U/L<span style=\"background: LightGoldenRodYellow\"> (Details: UCUM  code1742-6 = '1742-6')</span></p><h3>ReferenceRanges</h3><table class=\"grid\"><tr><td style=\"display: none\">-</td><td><b>Low</b></td><td><b>High</b></td></tr><tr><td style=\"display: none\">*</td><td>7 U/L<span style=\"background: LightGoldenRodYellow\"> (Details: UCUM  codeU/L = 'U/L')</span></td><td> </td></tr><tr><td style=\"display: none\">*</td><td> </td><td>35 U/L<span style=\"background: LightGoldenRodYellow\"> (Details: UCUM  codeU/L = 'U/L')</span></td></tr></table></div>"},"status":"final","category":[{"coding":[{"system":"http://terminology.hl7.org/CodeSystem/observation-category","code":"laboratory"}]}],"code":{"coding":[{"system":"http://loinc.org","code":"1742-6","display":"Alanine aminotransferase [Enzymatic activity/volume] in Serum or Plasma"}],"text":"Alanine aminotransferase [Enzymatic activity/volume] in Serum or Plasma"},"subject":{"reference":"urn:uuid:0608e4bf-c598-48e0-ae7b-20e52fa2158f"},"effectiveDateTime":"2025-01-19","performer":[{"display":"The Central European Lab"}],"valueQuantity":{"value":11.8,"unit":"U/L","system":"http://unitsofmeasure.org","code":"1742-6"},"referenceRange":[{"low":{"value":7,"system":"http://unitsofmeasure.org","code":"U/L"}},{"high":{"value":35,"system":"http://unitsofmeasure.org","code":"U/L"}}]}},{"fullUrl":"urn:uuid:007cc089-b094-4486-a006-4e13fc16032f","resource":{"resourceType":"Observation","id":"007cc089-b094-4486-a006-4e13fc16032f","meta":{"profile":["http://hl7.eu/fhir/laboratory/StructureDefinition/Observation-resultslab-eu-lab"]},"text":{"status":"generated","div":"<div xmlns=\"http://www.w3.org/1999/xhtml\"><a name=\"Observation_007cc089-b094-4486-a006-4e13fc16032f\"> </a><p class=\"res-header-id\"><b>Generated Narrative: Observation 007cc089-b094-4486-a006-4e13fc16032f</b></p><a name=\"007cc089-b094-4486-a006-4e13fc16032f\"> </a><a name=\"hc007cc089-b094-4486-a006-4e13fc16032f\"> </a><div style=\"display: inline-block; background-color: #d9e0e7; padding: 6px; margin: 4px; border: 1px solid #8da1b4; border-radius: 5px; line-height: 60%\"><p style=\"margin-bottom: 0px\"/><p style=\"margin-bottom: 0px\">Profile: <a href=\"http://hl7.eu/fhir/laboratory/0.1.1/StructureDefinition-Observation-resultslab-eu-lab.html\">Observation Results: laboratory</a></p></div><p><b>status</b>: Final</p><p><b>category</b>: <span title=\"Codes:{http://terminology.hl7.org/CodeSystem/observation-category laboratory}\">Laboratory</span></p><p><b>code</b>: <span title=\"Codes:{http://loinc.org 1920-8}\">Aspartate aminotransferase [Enzymatic activity/volume] in Serum or Plasma</span></p><p><b>subject</b>: <a href=\"Bundle-Instance-Bundle-77013a3f-bd32-4284-a08f-77750c8705bf.html#urn-uuid-0608e4bf-c598-48e0-ae7b-20e52fa2158f\">Ida Exel Female, DoB: 1944-04-22 ( Jurisdictional health number)</a></p><p><b>effective</b>: 2025-01-19</p><p><b>performer</b>: The Central European Lab</p><p><b>value</b>: 22 U/L<span style=\"background: LightGoldenRodYellow\"> (Details: UCUM  code1920-8 = '1920-8')</span></p><h3>ReferenceRanges</h3><table class=\"grid\"><tr><td style=\"display: none\">-</td><td><b>Low</b></td><td><b>High</b></td></tr><tr><td style=\"display: none\">*</td><td>10 U/L<span style=\"background: LightGoldenRodYellow\"> (Details: UCUM  codeU/L = 'U/L')</span></td><td> </td></tr><tr><td style=\"display: none\">*</td><td> </td><td>40 U/L<span style=\"background: LightGoldenRodYellow\"> (Details: UCUM  codeU/L = 'U/L')</span></td></tr></table></div>"},"status":"final","category":[{"coding":[{"system":"http://terminology.hl7.org/CodeSystem/observation-category","code":"laboratory"}]}],"code":{"coding":[{"system":"http://loinc.org","code":"1920-8","display":"Aspartate aminotransferase [Enzymatic activity/volume] in Serum or Plasma"}],"text":"Aspartate aminotransferase [Enzymatic activity/volume] in Serum or Plasma"},"subject":{"reference":"urn:uuid:0608e4bf-c598-48e0-ae7b-20e52fa2158f"},"effectiveDateTime":"2025-01-19","performer":[{"display":"The Central European Lab"}],"valueQuantity":{"value":22,"unit":"U/L","system":"http://unitsofmeasure.org","code":"1920-8"},"referenceRange":[{"low":{"value":10,"system":"http://unitsofmeasure.org","code":"U/L"}},{"high":{"value":40,"system":"http://unitsofmeasure.org","code":"U/L"}}]}},{"fullUrl":"urn:uuid:3b43a539-a848-4bd0-93f4-e957215a70ee","resource":{"resourceType":"Observation","id":"3b43a539-a848-4bd0-93f4-e957215a70ee","meta":{"profile":["http://hl7.eu/fhir/laboratory/StructureDefinition/Observation-resultslab-eu-lab"]},"text":{"status":"generated","div":"<div xmlns=\"http://www.w3.org/1999/xhtml\"><a name=\"Observation_3b43a539-a848-4bd0-93f4-e957215a70ee\"> </a><p class=\"res-header-id\"><b>Generated Narrative: Observation 3b43a539-a848-4bd0-93f4-e957215a70ee</b></p><a name=\"3b43a539-a848-4bd0-93f4-e957215a70ee\"> </a><a name=\"hc3b43a539-a848-4bd0-93f4-e957215a70ee\"> </a><div style=\"display: inline-block; background-color: #d9e0e7; padding: 6px; margin: 4px; border: 1px solid #8da1b4; border-radius: 5px; line-height: 60%\"><p style=\"margin-bottom: 0px\"/><p style=\"margin-bottom: 0px\">Profile: <a href=\"http://hl7.eu/fhir/laboratory/0.1.1/StructureDefinition-Observation-resultslab-eu-lab.html\">Observation Results: laboratory</a></p></div><p><b>status</b>: Final</p><p><b>category</b>: <span title=\"Codes:{http://terminology.hl7.org/CodeSystem/observation-category laboratory}\">Laboratory</span></p><p><b>code</b>: <span title=\"Codes:{http://loinc.org 19123-9}\">Magnesium [Mass/volume] in Serum or Plasma</span></p><p><b>subject</b>: <a href=\"Bundle-Instance-Bundle-77013a3f-bd32-4284-a08f-77750c8705bf.html#urn-uuid-0608e4bf-c598-48e0-ae7b-20e52fa2158f\">Ida Exel Female, DoB: 1944-04-22 ( Jurisdictional health number)</a></p><p><b>effective</b>: 2025-01-19</p><p><b>performer</b>: The Central European Lab</p><p><b>value</b>: 1.7 mg/dL<span style=\"background: LightGoldenRodYellow\"> (Details: UCUM  code19123-9 = '19123-9')</span></p><h3>ReferenceRanges</h3><table class=\"grid\"><tr><td style=\"display: none\">-</td><td><b>Low</b></td><td><b>High</b></td></tr><tr><td style=\"display: none\">*</td><td>1.6 mg/dL<span style=\"background: LightGoldenRodYellow\"> (Details: UCUM  codemg/dL = 'mg/dL')</span></td><td> </td></tr><tr><td style=\"display: none\">*</td><td> </td><td>2.3 mg/dL<span style=\"background: LightGoldenRodYellow\"> (Details: UCUM  codemg/dL = 'mg/dL')</span></td></tr></table></div>"},"status":"final","category":[{"coding":[{"system":"http://terminology.hl7.org/CodeSystem/observation-category","code":"laboratory"}]}],"code":{"coding":[{"system":"http://loinc.org","code":"19123-9","display":"Magnesium [Mass/volume] in Serum or Plasma"}],"text":"Magnesium [Mass/volume] in Serum or Plasma"},"subject":{"reference":"urn:uuid:0608e4bf-c598-48e0-ae7b-20e52fa2158f"},"effectiveDateTime":"2025-01-19","performer":[{"display":"The Central European Lab"}],"valueQuantity":{"value":1.7,"unit":"mg/dL","system":"http://unitsofmeasure.org","code":"19123-9"},"referenceRange":[{"low":{"value":1.6,"system":"http://unitsofmeasure.org","code":"mg/dL"}},{"high":{"value":2.3,"system":"http://unitsofmeasure.org","code":"mg/dL"}}]}},{"fullUrl":"urn:uuid:056360b8-9df5-460b-b766-856f995a9ada","resource":{"resourceType":"Observation","id":"056360b8-9df5-460b-b766-856f995a9ada","meta":{"profile":["http://hl7.eu/fhir/laboratory/StructureDefinition/Observation-resultslab-eu-lab"]},"text":{"status":"generated","div":"<div xmlns=\"http://www.w3.org/1999/xhtml\"><a name=\"Observation_056360b8-9df5-460b-b766-856f995a9ada\"> </a><p class=\"res-header-id\"><b>Generated Narrative: Observation 056360b8-9df5-460b-b766-856f995a9ada</b></p><a name=\"056360b8-9df5-460b-b766-856f995a9ada\"> </a><a name=\"hc056360b8-9df5-460b-b766-856f995a9ada\"> </a><div style=\"display: inline-block; background-color: #d9e0e7; padding: 6px; margin: 4px; border: 1px solid #8da1b4; border-radius: 5px; line-height: 60%\"><p style=\"margin-bottom: 0px\"/><p style=\"margin-bottom: 0px\">Profile: <a href=\"http://hl7.eu/fhir/laboratory/0.1.1/StructureDefinition-Observation-resultslab-eu-lab.html\">Observation Results: laboratory</a></p></div><p><b>status</b>: Final</p><p><b>category</b>: <span title=\"Codes:{http://terminology.hl7.org/CodeSystem/observation-category laboratory}\">Laboratory</span></p><p><b>code</b>: <span title=\"Codes:{http://loinc.org 2093-3}\">Cholesterol [Mass/volume] in Serum or Plasma</span></p><p><b>subject</b>: <a href=\"Bundle-Instance-Bundle-77013a3f-bd32-4284-a08f-77750c8705bf.html#urn-uuid-0608e4bf-c598-48e0-ae7b-20e52fa2158f\">Ida Exel Female, DoB: 1944-04-22 ( Jurisdictional health number)</a></p><p><b>effective</b>: 2025-01-19</p><p><b>performer</b>: The Central European Lab</p><p><b>value</b>: 309.6 mg/dL<span style=\"background: LightGoldenRodYellow\"> (Details: UCUM  code2093-3 = '2093-3')</span></p><p><b>interpretation</b>: <span title=\"Codes:{http://terminology.hl7.org/CodeSystem/v3-ObservationInterpretation H}\">High</span></p><h3>ReferenceRanges</h3><table class=\"grid\"><tr><td style=\"display: none\">-</td><td><b>Low</b></td><td><b>High</b></td></tr><tr><td style=\"display: none\">*</td><td>130 mg/dL<span style=\"background: LightGoldenRodYellow\"> (Details: UCUM  codemg/dL = 'mg/dL')</span></td><td> </td></tr><tr><td style=\"display: none\">*</td><td> </td><td>200 mg/dL<span style=\"background: LightGoldenRodYellow\"> (Details: UCUM  codemg/dL = 'mg/dL')</span></td></tr></table></div>"},"status":"final","category":[{"coding":[{"system":"http://terminology.hl7.org/CodeSystem/observation-category","code":"laboratory"}]}],"code":{"coding":[{"system":"http://loinc.org","code":"2093-3","display":"Cholesterol [Mass/volume] in Serum or Plasma"}],"text":"Cholesterol [Mass/volume] in Serum or Plasma"},"subject":{"reference":"urn:uuid:0608e4bf-c598-48e0-ae7b-20e52fa2158f"},"effectiveDateTime":"2025-01-19","performer":[{"display":"The Central European Lab"}],"valueQuantity":{"value":309.6,"unit":"mg/dL","system":"http://unitsofmeasure.org","code":"2093-3"},"interpretation":[{"coding":[{"system":"http://terminology.hl7.org/CodeSystem/v3-ObservationInterpretation","code":"H","display":"High"}]}],"referenceRange":[{"low":{"value":130,"system":"http://unitsofmeasure.org","code":"mg/dL"}},{"high":{"value":200,"system":"http://unitsofmeasure.org","code":"mg/dL"}}]}},{"fullUrl":"urn:uuid:cd093baa-23bc-4333-8e05-2764e2d79abd","resource":{"resourceType":"Observation","id":"cd093baa-23bc-4333-8e05-2764e2d79abd","meta":{"profile":["http://hl7.eu/fhir/laboratory/StructureDefinition/Observation-resultslab-eu-lab"]},"text":{"status":"generated","div":"<div xmlns=\"http://www.w3.org/1999/xhtml\"><a name=\"Observation_cd093baa-23bc-4333-8e05-2764e2d79abd\"> </a><p class=\"res-header-id\"><b>Generated Narrative: Observation cd093baa-23bc-4333-8e05-2764e2d79abd</b></p><a name=\"cd093baa-23bc-4333-8e05-2764e2d79abd\"> </a><a name=\"hccd093baa-23bc-4333-8e05-2764e2d79abd\"> </a><div style=\"display: inline-block; background-color: #d9e0e7; padding: 6px; margin: 4px; border: 1px solid #8da1b4; border-radius: 5px; line-height: 60%\"><p style=\"margin-bottom: 0px\"/><p style=\"margin-bottom: 0px\">Profile: <a href=\"http://hl7.eu/fhir/laboratory/0.1.1/StructureDefinition-Observation-resultslab-eu-lab.html\">Observation Results: laboratory</a></p></div><p><b>status</b>: Final</p><p><b>category</b>: <span title=\"Codes:{http://terminology.hl7.org/CodeSystem/observation-category laboratory}\">Laboratory</span></p><p><b>code</b>: <span title=\"Codes:{http://loinc.org 2571-8}\">Triglyceride [Mass/volume] in Serum or Plasma</span></p><p><b>subject</b>: <a href=\"Bundle-Instance-Bundle-77013a3f-bd32-4284-a08f-77750c8705bf.html#urn-uuid-0608e4bf-c598-48e0-ae7b-20e52fa2158f\">Ida Exel Female, DoB: 1944-04-22 ( Jurisdictional health number)</a></p><p><b>effective</b>: 2025-01-19</p><p><b>performer</b>: The Central European Lab</p><p><b>value</b>: 104.4 mg/dL<span style=\"background: LightGoldenRodYellow\"> (Details: UCUM  code2571-8 = '2571-8')</span></p><h3>ReferenceRanges</h3><table class=\"grid\"><tr><td style=\"display: none\">-</td><td><b>Low</b></td><td><b>High</b></td></tr><tr><td style=\"display: none\">*</td><td>0 mg/dL<span style=\"background: LightGoldenRodYellow\"> (Details: UCUM  codemg/dL = 'mg/dL')</span></td><td> </td></tr><tr><td style=\"display: none\">*</td><td> </td><td>150 mg/dL<span style=\"background: LightGoldenRodYellow\"> (Details: UCUM  codemg/dL = 'mg/dL')</span></td></tr></table></div>"},"status":"final","category":[{"coding":[{"system":"http://terminology.hl7.org/CodeSystem/observation-category","code":"laboratory"}]}],"code":{"coding":[{"system":"http://loinc.org","code":"2571-8","display":"Triglyceride [Mass/volume] in Serum or Plasma"}],"text":"Triglyceride [Mass/volume] in Serum or Plasma"},"subject":{"reference":"urn:uuid:0608e4bf-c598-48e0-ae7b-20e52fa2158f"},"effectiveDateTime":"2025-01-19","performer":[{"display":"The Central European Lab"}],"valueQuantity":{"value":104.4,"unit":"mg/dL","system":"http://unitsofmeasure.org","code":"2571-8"},"referenceRange":[{"low":{"value":0,"system":"http://unitsofmeasure.org","code":"mg/dL"}},{"high":{"value":150,"system":"http://unitsofmeasure.org","code":"mg/dL"}}]}},{"fullUrl":"urn:uuid:d1d4f181-5e97-48ec-8587-c5d3881f89f9","resource":{"resourceType":"Observation","id":"d1d4f181-5e97-48ec-8587-c5d3881f89f9","meta":{"profile":["http://hl7.eu/fhir/laboratory/StructureDefinition/Observation-resultslab-eu-lab"]},"text":{"status":"generated","div":"<div xmlns=\"http://www.w3.org/1999/xhtml\"><a name=\"Observation_d1d4f181-5e97-48ec-8587-c5d3881f89f9\"> </a><p class=\"res-header-id\"><b>Generated Narrative: Observation d1d4f181-5e97-48ec-8587-c5d3881f89f9</b></p><a name=\"d1d4f181-5e97-48ec-8587-c5d3881f89f9\"> </a><a name=\"hcd1d4f181-5e97-48ec-8587-c5d3881f89f9\"> </a><div style=\"display: inline-block; background-color: #d9e0e7; padding: 6px; margin: 4px; border: 1px solid #8da1b4; border-radius: 5px; line-height: 60%\"><p style=\"margin-bottom: 0px\"/><p style=\"margin-bottom: 0px\">Profile: <a href=\"http://hl7.eu/fhir/laboratory/0.1.1/StructureDefinition-Observation-resultslab-eu-lab.html\">Observation Results: laboratory</a></p></div><p><b>status</b>: Final</p><p><b>category</b>: <span title=\"Codes:{http://terminology.hl7.org/CodeSystem/observation-category laboratory}\">Laboratory</span></p><p><b>code</b>: <span title=\"Codes:{http://loinc.org 18262-6}\">Cholesterol in LDL [Mass/volume] in Serum or Plasma by Direct assay</span></p><p><b>subject</b>: <a href=\"Bundle-Instance-Bundle-77013a3f-bd32-4284-a08f-77750c8705bf.html#urn-uuid-0608e4bf-c598-48e0-ae7b-20e52fa2158f\">Ida Exel Female, DoB: 1944-04-22 ( Jurisdictional health number)</a></p><p><b>effective</b>: 2025-01-19</p><p><b>performer</b>: The Central European Lab</p><p><b>value</b>: 232.2 mg/dL<span style=\"background: LightGoldenRodYellow\"> (Details: UCUM  code18262-6 = '18262-6')</span></p><p><b>interpretation</b>: <span title=\"Codes:{http://terminology.hl7.org/CodeSystem/v3-ObservationInterpretation H}\">High</span></p><h3>ReferenceRanges</h3><table class=\"grid\"><tr><td style=\"display: none\">-</td><td><b>Low</b></td><td><b>High</b></td></tr><tr><td style=\"display: none\">*</td><td>0 mg/dL<span style=\"background: LightGoldenRodYellow\"> (Details: UCUM  codemg/dL = 'mg/dL')</span></td><td> </td></tr><tr><td style=\"display: none\">*</td><td> </td><td>130 mg/dL<span style=\"background: LightGoldenRodYellow\"> (Details: UCUM  codemg/dL = 'mg/dL')</span></td></tr></table></div>"},"status":"final","category":[{"coding":[{"system":"http://terminology.hl7.org/CodeSystem/observation-category","code":"laboratory"}]}],"code":{"coding":[{"system":"http://loinc.org","code":"18262-6","display":"Cholesterol in LDL [Mass/volume] in Serum or Plasma by Direct assay"}],"text":"Cholesterol in LDL [Mass/volume] in Serum or Plasma by Direct assay"},"subject":{"reference":"urn:uuid:0608e4bf-c598-48e0-ae7b-20e52fa2158f"},"effectiveDateTime":"2025-01-19","performer":[{"display":"The Central European Lab"}],"valueQuantity":{"value":232.2,"unit":"mg/dL","system":"http://unitsofmeasure.org","code":"18262-6"},"interpretation":[{"coding":[{"system":"http://terminology.hl7.org/CodeSystem/v3-ObservationInterpretation","code":"H","display":"High"}]}],"referenceRange":[{"low":{"value":0,"system":"http://unitsofmeasure.org","code":"mg/dL"}},{"high":{"value":130,"system":"http://unitsofmeasure.org","code":"mg/dL"}}]}},{"fullUrl":"urn:uuid:cb28ad1a-2c56-4f1b-9748-95f16bf47072","resource":{"resourceType":"Observation","id":"cb28ad1a-2c56-4f1b-9748-95f16bf47072","meta":{"profile":["http://hl7.eu/fhir/laboratory/StructureDefinition/Observation-resultslab-eu-lab"]},"text":{"status":"generated","div":"<div xmlns=\"http://www.w3.org/1999/xhtml\"><a name=\"Observation_cb28ad1a-2c56-4f1b-9748-95f16bf47072\"> </a><p class=\"res-header-id\"><b>Generated Narrative: Observation cb28ad1a-2c56-4f1b-9748-95f16bf47072</b></p><a name=\"cb28ad1a-2c56-4f1b-9748-95f16bf47072\"> </a><a name=\"hccb28ad1a-2c56-4f1b-9748-95f16bf47072\"> </a><div style=\"display: inline-block; background-color: #d9e0e7; padding: 6px; margin: 4px; border: 1px solid #8da1b4; border-radius: 5px; line-height: 60%\"><p style=\"margin-bottom: 0px\"/><p style=\"margin-bottom: 0px\">Profile: <a href=\"http://hl7.eu/fhir/laboratory/0.1.1/StructureDefinition-Observation-resultslab-eu-lab.html\">Observation Results: laboratory</a></p></div><p><b>status</b>: Final</p><p><b>category</b>: <span title=\"Codes:{http://terminology.hl7.org/CodeSystem/observation-category laboratory}\">Laboratory</span></p><p><b>code</b>: <span title=\"Codes:{http://loinc.org 2085-9}\">Cholesterol in HDL [Mass/volume] in Serum or Plasma</span></p><p><b>subject</b>: <a href=\"Bundle-Instance-Bundle-77013a3f-bd32-4284-a08f-77750c8705bf.html#urn-uuid-0608e4bf-c598-48e0-ae7b-20e52fa2158f\">Ida Exel Female, DoB: 1944-04-22 ( Jurisdictional health number)</a></p><p><b>effective</b>: 2025-01-19</p><p><b>performer</b>: The Central European Lab</p><p><b>value</b>: 56.5 mg/dL<span style=\"background: LightGoldenRodYellow\"> (Details: UCUM  code2085-9 = '2085-9')</span></p><h3>ReferenceRanges</h3><table class=\"grid\"><tr><td style=\"display: none\">-</td><td><b>Low</b></td><td><b>High</b></td></tr><tr><td style=\"display: none\">*</td><td>40 mg/dL<span style=\"background: LightGoldenRodYellow\"> (Details: UCUM  codemg/dL = 'mg/dL')</span></td><td> </td></tr><tr><td style=\"display: none\">*</td><td> </td><td>100 mg/dL<span style=\"background: LightGoldenRodYellow\"> (Details: UCUM  codemg/dL = 'mg/dL')</span></td></tr></table></div>"},"status":"final","category":[{"coding":[{"system":"http://terminology.hl7.org/CodeSystem/observation-category","code":"laboratory"}]}],"code":{"coding":[{"system":"http://loinc.org","code":"2085-9","display":"Cholesterol in HDL [Mass/volume] in Serum or Plasma"}],"text":"Cholesterol in HDL [Mass/volume] in Serum or Plasma"},"subject":{"reference":"urn:uuid:0608e4bf-c598-48e0-ae7b-20e52fa2158f"},"effectiveDateTime":"2025-01-19","performer":[{"display":"The Central European Lab"}],"valueQuantity":{"value":56.5,"unit":"mg/dL","system":"http://unitsofmeasure.org","code":"2085-9"},"referenceRange":[{"low":{"value":40,"system":"http://unitsofmeasure.org","code":"mg/dL"}},{"high":{"value":100,"system":"http://unitsofmeasure.org","code":"mg/dL"}}]}},{"fullUrl":"urn:uuid:a9275aeb-6d41-47e1-959a-d9c37da52d98","resource":{"resourceType":"Observation","id":"a9275aeb-6d41-47e1-959a-d9c37da52d98","meta":{"profile":["http://hl7.eu/fhir/laboratory/StructureDefinition/Observation-resultslab-eu-lab"]},"text":{"status":"generated","div":"<div xmlns=\"http://www.w3.org/1999/xhtml\"><a name=\"Observation_a9275aeb-6d41-47e1-959a-d9c37da52d98\"> </a><p class=\"res-header-id\"><b>Generated Narrative: Observation a9275aeb-6d41-47e1-959a-d9c37da52d98</b></p><a name=\"a9275aeb-6d41-47e1-959a-d9c37da52d98\"> </a><a name=\"hca9275aeb-6d41-47e1-959a-d9c37da52d98\"> </a><div style=\"display: inline-block; background-color: #d9e0e7; padding: 6px; margin: 4px; border: 1px solid #8da1b4; border-radius: 5px; line-height: 60%\"><p style=\"margin-bottom: 0px\"/><p style=\"margin-bottom: 0px\">Profile: <a href=\"http://hl7.eu/fhir/laboratory/0.1.1/StructureDefinition-Observation-resultslab-eu-lab.html\">Observation Results: laboratory</a></p></div><p><b>status</b>: Final</p><p><b>category</b>: <span title=\"Codes:{http://terminology.hl7.org/CodeSystem/observation-category laboratory}\">Laboratory</span></p><p><b>code</b>: <span title=\"Codes:{http://loinc.org 4548-4}\">Hemoglobin A1c/Hemoglobin.total in Blood</span></p><p><b>subject</b>: <a href=\"Bundle-Instance-Bundle-77013a3f-bd32-4284-a08f-77750c8705bf.html#urn-uuid-0608e4bf-c598-48e0-ae7b-20e52fa2158f\">Ida Exel Female, DoB: 1944-04-22 ( Jurisdictional health number)</a></p><p><b>effective</b>: 2025-01-19</p><p><b>performer</b>: The Central European Lab</p><p><b>value</b>: 6.3 %<span style=\"background: LightGoldenRodYellow\"> (Details: UCUM  code4548-4 = '4548-4')</span></p><h3>ReferenceRanges</h3><table class=\"grid\"><tr><td style=\"display: none\">-</td><td><b>Low</b></td><td><b>High</b></td></tr><tr><td style=\"display: none\">*</td><td>4.3 %<span style=\"background: LightGoldenRodYellow\"> (Details: UCUM  code% = '%')</span></td><td> </td></tr><tr><td style=\"display: none\">*</td><td> </td><td>6.4 %<span style=\"background: LightGoldenRodYellow\"> (Details: UCUM  code% = '%')</span></td></tr></table></div>"},"status":"final","category":[{"coding":[{"system":"http://terminology.hl7.org/CodeSystem/observation-category","code":"laboratory"}]}],"code":{"coding":[{"system":"http://loinc.org","code":"4548-4","display":"Hemoglobin A1c/Hemoglobin.total in Blood"}],"text":"Hemoglobin A1c/Hemoglobin.total in Blood"},"subject":{"reference":"urn:uuid:0608e4bf-c598-48e0-ae7b-20e52fa2158f"},"effectiveDateTime":"2025-01-19","performer":[{"display":"The Central European Lab"}],"valueQuantity":{"value":6.3,"unit":"%","system":"http://unitsofmeasure.org","code":"4548-4"},"referenceRange":[{"low":{"value":4.3,"system":"http://unitsofmeasure.org","code":"%"}},{"high":{"value":6.4,"system":"http://unitsofmeasure.org","code":"%"}}]}},{"fullUrl":"urn:uuid:ba6f4428-bc3d-4419-bdac-c864299363b8","resource":{"resourceType":"Observation","id":"ba6f4428-bc3d-4419-bdac-c864299363b8","meta":{"profile":["http://hl7.eu/fhir/laboratory/StructureDefinition/Observation-resultslab-eu-lab"]},"text":{"status":"generated","div":"<div xmlns=\"http://www.w3.org/1999/xhtml\"><a name=\"Observation_ba6f4428-bc3d-4419-bdac-c864299363b8\"> </a><p class=\"res-header-id\"><b>Generated Narrative: Observation ba6f4428-bc3d-4419-bdac-c864299363b8</b></p><a name=\"ba6f4428-bc3d-4419-bdac-c864299363b8\"> </a><a name=\"hcba6f4428-bc3d-4419-bdac-c864299363b8\"> </a><div style=\"display: inline-block; background-color: #d9e0e7; padding: 6px; margin: 4px; border: 1px solid #8da1b4; border-radius: 5px; line-height: 60%\"><p style=\"margin-bottom: 0px\"/><p style=\"margin-bottom: 0px\">Profile: <a href=\"http://hl7.eu/fhir/laboratory/0.1.1/StructureDefinition-Observation-resultslab-eu-lab.html\">Observation Results: laboratory</a></p></div><p><b>status</b>: Final</p><p><b>category</b>: <span title=\"Codes:{http://terminology.hl7.org/CodeSystem/observation-category laboratory}\">Laboratory</span></p><p><b>code</b>: <span title=\"Codes:{http://loinc.org 89579-7}\">Troponin I.cardiac [Mass/volume] in Serum or Plasma by High sensitivity method</span></p><p><b>subject</b>: <a href=\"Bundle-Instance-Bundle-77013a3f-bd32-4284-a08f-77750c8705bf.html#urn-uuid-0608e4bf-c598-48e0-ae7b-20e52fa2158f\">Ida Exel Female, DoB: 1944-04-22 ( Jurisdictional health number)</a></p><p><b>effective</b>: 2025-01-19</p><p><b>performer</b>: The Central European Lab</p><p><b>value</b>: 0 pg/mL<span style=\"background: LightGoldenRodYellow\"> (Details: UCUM  code89579-7 = '89579-7')</span></p><h3>ReferenceRanges</h3><table class=\"grid\"><tr><td style=\"display: none\">-</td><td><b>Low</b></td><td><b>High</b></td></tr><tr><td style=\"display: none\">*</td><td>0 pg/mL<span style=\"background: LightGoldenRodYellow\"> (Details: UCUM  codepg/mL = 'pg/mL')</span></td><td> </td></tr><tr><td style=\"display: none\">*</td><td> </td><td>19.9 pg/mL<span style=\"background: LightGoldenRodYellow\"> (Details: UCUM  codepg/mL = 'pg/mL')</span></td></tr></table></div>"},"status":"final","category":[{"coding":[{"system":"http://terminology.hl7.org/CodeSystem/observation-category","code":"laboratory"}]}],"code":{"coding":[{"system":"http://loinc.org","code":"89579-7","display":"Troponin I.cardiac [Mass/volume] in Serum or Plasma by High sensitivity method"}],"text":"Troponin I.cardiac [Mass/volume] in Serum or Plasma by High sensitivity method"},"subject":{"reference":"urn:uuid:0608e4bf-c598-48e0-ae7b-20e52fa2158f"},"effectiveDateTime":"2025-01-19","performer":[{"display":"The Central European Lab"}],"valueQuantity":{"value":0,"unit":"pg/mL","system":"http://unitsofmeasure.org","code":"89579-7"},"referenceRange":[{"low":{"value":0,"system":"http://unitsofmeasure.org","code":"pg/mL"}},{"high":{"value":19.9,"system":"http://unitsofmeasure.org","code":"pg/mL"}}]}},{"fullUrl":"urn:uuid:05db95ab-5c0f-44df-bc6f-1ec1b1f9f24b","resource":{"resourceType":"Observation","id":"05db95ab-5c0f-44df-bc6f-1ec1b1f9f24b","meta":{"profile":["http://hl7.eu/fhir/laboratory/StructureDefinition/Observation-resultslab-eu-lab"]},"text":{"status":"generated","div":"<div xmlns=\"http://www.w3.org/1999/xhtml\"><a name=\"Observation_05db95ab-5c0f-44df-bc6f-1ec1b1f9f24b\"> </a><p class=\"res-header-id\"><b>Generated Narrative: Observation 05db95ab-5c0f-44df-bc6f-1ec1b1f9f24b</b></p><a name=\"05db95ab-5c0f-44df-bc6f-1ec1b1f9f24b\"> </a><a name=\"hc05db95ab-5c0f-44df-bc6f-1ec1b1f9f24b\"> </a><div style=\"display: inline-block; background-color: #d9e0e7; padding: 6px; margin: 4px; border: 1px solid #8da1b4; border-radius: 5px; line-height: 60%\"><p style=\"margin-bottom: 0px\"/><p style=\"margin-bottom: 0px\">Profile: <a href=\"http://hl7.eu/fhir/laboratory/0.1.1/StructureDefinition-Observation-resultslab-eu-lab.html\">Observation Results: laboratory</a></p></div><p><b>status</b>: Final</p><p><b>category</b>: <span title=\"Codes:{http://terminology.hl7.org/CodeSystem/observation-category laboratory}\">Laboratory</span></p><p><b>code</b>: <span title=\"Codes:{http://loinc.org 2276-4}\">Ferritin [Mass/volume] in Serum or Plasma</span></p><p><b>subject</b>: <a href=\"Bundle-Instance-Bundle-77013a3f-bd32-4284-a08f-77750c8705bf.html#urn-uuid-0608e4bf-c598-48e0-ae7b-20e52fa2158f\">Ida Exel Female, DoB: 1944-04-22 ( Jurisdictional health number)</a></p><p><b>effective</b>: 2025-01-19</p><p><b>performer</b>: The Central European Lab</p><p><b>value</b>: 59 ug/L<span style=\"background: LightGoldenRodYellow\"> (Details: UCUM  code2276-4 = '2276-4')</span></p><h3>ReferenceRanges</h3><table class=\"grid\"><tr><td style=\"display: none\">-</td><td><b>Low</b></td><td><b>High</b></td></tr><tr><td style=\"display: none\">*</td><td>15 ug/L<span style=\"background: LightGoldenRodYellow\"> (Details: UCUM  codeug/L = 'ug/L')</span></td><td> </td></tr><tr><td style=\"display: none\">*</td><td> </td><td>150 ug/L<span style=\"background: LightGoldenRodYellow\"> (Details: UCUM  codeug/L = 'ug/L')</span></td></tr></table></div>"},"status":"final","category":[{"coding":[{"system":"http://terminology.hl7.org/CodeSystem/observation-category","code":"laboratory"}]}],"code":{"coding":[{"system":"http://loinc.org","code":"2276-4","display":"Ferritin [Mass/volume] in Serum or Plasma"}],"text":"Ferritin [Mass/volume] in Serum or Plasma"},"subject":{"reference":"urn:uuid:0608e4bf-c598-48e0-ae7b-20e52fa2158f"},"effectiveDateTime":"2025-01-19","performer":[{"display":"The Central European Lab"}],"valueQuantity":{"value":59,"unit":"ug/L","system":"http://unitsofmeasure.org","code":"2276-4"},"referenceRange":[{"low":{"value":15,"system":"http://unitsofmeasure.org","code":"ug/L"}},{"high":{"value":150,"system":"http://unitsofmeasure.org","code":"ug/L"}}]}},{"fullUrl":"urn:uuid:38ddafc6-d42f-4b9c-8f52-a30b5846e6b8","resource":{"resourceType":"Observation","id":"38ddafc6-d42f-4b9c-8f52-a30b5846e6b8","meta":{"profile":["http://hl7.eu/fhir/laboratory/StructureDefinition/Observation-resultslab-eu-lab"]},"text":{"status":"generated","div":"<div xmlns=\"http://www.w3.org/1999/xhtml\"><a name=\"Observation_38ddafc6-d42f-4b9c-8f52-a30b5846e6b8\"> </a><p class=\"res-header-id\"><b>Generated Narrative: Observation 38ddafc6-d42f-4b9c-8f52-a30b5846e6b8</b></p><a name=\"38ddafc6-d42f-4b9c-8f52-a30b5846e6b8\"> </a><a name=\"hc38ddafc6-d42f-4b9c-8f52-a30b5846e6b8\"> </a><div style=\"display: inline-block; background-color: #d9e0e7; padding: 6px; margin: 4px; border: 1px solid #8da1b4; border-radius: 5px; line-height: 60%\"><p style=\"margin-bottom: 0px\"/><p style=\"margin-bottom: 0px\">Profile: <a href=\"http://hl7.eu/fhir/laboratory/0.1.1/StructureDefinition-Observation-resultslab-eu-lab.html\">Observation Results: laboratory</a></p></div><p><b>status</b>: Final</p><p><b>category</b>: <span title=\"Codes:{http://terminology.hl7.org/CodeSystem/observation-category laboratory}\">Laboratory</span></p><p><b>code</b>: <span title=\"Codes:{http://loinc.org 2498-4}\">Iron [Mass/volume] in Serum or Plasma</span></p><p><b>subject</b>: <a href=\"Bundle-Instance-Bundle-77013a3f-bd32-4284-a08f-77750c8705bf.html#urn-uuid-0608e4bf-c598-48e0-ae7b-20e52fa2158f\">Ida Exel Female, DoB: 1944-04-22 ( Jurisdictional health number)</a></p><p><b>effective</b>: 2025-01-19</p><p><b>performer</b>: The Central European Lab</p><p><b>value</b>: 140.8 ug/dL<span style=\"background: LightGoldenRodYellow\"> (Details: UCUM  code2498-4 = '2498-4')</span></p><h3>ReferenceRanges</h3><table class=\"grid\"><tr><td style=\"display: none\">-</td><td><b>Low</b></td><td><b>High</b></td></tr><tr><td style=\"display: none\">*</td><td>50 ug/dL<span style=\"background: LightGoldenRodYellow\"> (Details: UCUM  codeug/dL = 'ug/dL')</span></td><td> </td></tr><tr><td style=\"display: none\">*</td><td> </td><td>170 ug/dL<span style=\"background: LightGoldenRodYellow\"> (Details: UCUM  codeug/dL = 'ug/dL')</span></td></tr></table></div>"},"status":"final","category":[{"coding":[{"system":"http://terminology.hl7.org/CodeSystem/observation-category","code":"laboratory"}]}],"code":{"coding":[{"system":"http://loinc.org","code":"2498-4","display":"Iron [Mass/volume] in Serum or Plasma"}],"text":"Iron [Mass/volume] in Serum or Plasma"},"subject":{"reference":"urn:uuid:0608e4bf-c598-48e0-ae7b-20e52fa2158f"},"effectiveDateTime":"2025-01-19","performer":[{"display":"The Central European Lab"}],"valueQuantity":{"value":140.8,"unit":"ug/dL","system":"http://unitsofmeasure.org","code":"2498-4"},"referenceRange":[{"low":{"value":50,"system":"http://unitsofmeasure.org","code":"ug/dL"}},{"high":{"value":170,"system":"http://unitsofmeasure.org","code":"ug/dL"}}]}},{"fullUrl":"urn:uuid:dd6e75e9-293b-4182-bf5c-64f64eb489fe","resource":{"resourceType":"Observation","id":"dd6e75e9-293b-4182-bf5c-64f64eb489fe","meta":{"profile":["http://hl7.eu/fhir/laboratory/StructureDefinition/Observation-resultslab-eu-lab"]},"text":{"status":"generated","div":"<div xmlns=\"http://www.w3.org/1999/xhtml\"><a name=\"Observation_dd6e75e9-293b-4182-bf5c-64f64eb489fe\"> </a><p class=\"res-header-id\"><b>Generated Narrative: Observation dd6e75e9-293b-4182-bf5c-64f64eb489fe</b></p><a name=\"dd6e75e9-293b-4182-bf5c-64f64eb489fe\"> </a><a name=\"hcdd6e75e9-293b-4182-bf5c-64f64eb489fe\"> </a><div style=\"display: inline-block; background-color: #d9e0e7; padding: 6px; margin: 4px; border: 1px solid #8da1b4; border-radius: 5px; line-height: 60%\"><p style=\"margin-bottom: 0px\"/><p style=\"margin-bottom: 0px\">Profile: <a href=\"http://hl7.eu/fhir/laboratory/0.1.1/StructureDefinition-Observation-resultslab-eu-lab.html\">Observation Results: laboratory</a></p></div><p><b>status</b>: Final</p><p><b>category</b>: <span title=\"Codes:{http://terminology.hl7.org/CodeSystem/observation-category laboratory}\">Laboratory</span></p><p><b>code</b>: <span title=\"Codes:{http://loinc.org 2500-7}\">Iron binding capacity [Mass/volume] in Serum or Plasma</span></p><p><b>subject</b>: <a href=\"Bundle-Instance-Bundle-77013a3f-bd32-4284-a08f-77750c8705bf.html#urn-uuid-0608e4bf-c598-48e0-ae7b-20e52fa2158f\">Ida Exel Female, DoB: 1944-04-22 ( Jurisdictional health number)</a></p><p><b>effective</b>: 2025-01-19</p><p><b>performer</b>: The Central European Lab</p><p><b>value</b>: 405.1 ug/dL<span style=\"background: LightGoldenRodYellow\"> (Details: UCUM  code2500-7 = '2500-7')</span></p><h3>ReferenceRanges</h3><table class=\"grid\"><tr><td style=\"display: none\">-</td><td><b>Low</b></td><td><b>High</b></td></tr><tr><td style=\"display: none\">*</td><td>250 ug/dL<span style=\"background: LightGoldenRodYellow\"> (Details: UCUM  codeug/dL = 'ug/dL')</span></td><td> </td></tr><tr><td style=\"display: none\">*</td><td> </td><td>450 ug/dL<span style=\"background: LightGoldenRodYellow\"> (Details: UCUM  codeug/dL = 'ug/dL')</span></td></tr></table></div>"},"status":"final","category":[{"coding":[{"system":"http://terminology.hl7.org/CodeSystem/observation-category","code":"laboratory"}]}],"code":{"coding":[{"system":"http://loinc.org","code":"2500-7","display":"Iron binding capacity [Mass/volume] in Serum or Plasma"}],"text":"Iron binding capacity [Mass/volume] in Serum or Plasma"},"subject":{"reference":"urn:uuid:0608e4bf-c598-48e0-ae7b-20e52fa2158f"},"effectiveDateTime":"2025-01-19","performer":[{"display":"The Central European Lab"}],"valueQuantity":{"value":405.1,"unit":"ug/dL","system":"http://unitsofmeasure.org","code":"2500-7"},"referenceRange":[{"low":{"value":250,"system":"http://unitsofmeasure.org","code":"ug/dL"}},{"high":{"value":450,"system":"http://unitsofmeasure.org","code":"ug/dL"}}]}},{"fullUrl":"urn:uuid:99091ab2-6e21-4800-80d5-e0102b819540","resource":{"resourceType":"Observation","id":"99091ab2-6e21-4800-80d5-e0102b819540","meta":{"profile":["http://hl7.eu/fhir/laboratory/StructureDefinition/Observation-resultslab-eu-lab"]},"text":{"status":"generated","div":"<div xmlns=\"http://www.w3.org/1999/xhtml\"><a name=\"Observation_99091ab2-6e21-4800-80d5-e0102b819540\"> </a><p class=\"res-header-id\"><b>Generated Narrative: Observation 99091ab2-6e21-4800-80d5-e0102b819540</b></p><a name=\"99091ab2-6e21-4800-80d5-e0102b819540\"> </a><a name=\"hc99091ab2-6e21-4800-80d5-e0102b819540\"> </a><div style=\"display: inline-block; background-color: #d9e0e7; padding: 6px; margin: 4px; border: 1px solid #8da1b4; border-radius: 5px; line-height: 60%\"><p style=\"margin-bottom: 0px\"/><p style=\"margin-bottom: 0px\">Profile: <a href=\"http://hl7.eu/fhir/laboratory/0.1.1/StructureDefinition-Observation-resultslab-eu-lab.html\">Observation Results: laboratory</a></p></div><p><b>status</b>: Final</p><p><b>category</b>: <span title=\"Codes:{http://terminology.hl7.org/CodeSystem/observation-category laboratory}\">Laboratory</span></p><p><b>code</b>: <span title=\"Codes:{http://loinc.org 2502-3}\">Iron saturation [Mass Fraction] in Serum or Plasma</span></p><p><b>subject</b>: <a href=\"Bundle-Instance-Bundle-77013a3f-bd32-4284-a08f-77750c8705bf.html#urn-uuid-0608e4bf-c598-48e0-ae7b-20e52fa2158f\">Ida Exel Female, DoB: 1944-04-22 ( Jurisdictional health number)</a></p><p><b>effective</b>: 2025-01-19</p><p><b>performer</b>: The Central European Lab</p><p><b>value</b>: 17.6 %<span style=\"background: LightGoldenRodYellow\"> (Details: UCUM  code2502-3 = '2502-3')</span></p><h3>ReferenceRanges</h3><table class=\"grid\"><tr><td style=\"display: none\">-</td><td><b>Low</b></td><td><b>High</b></td></tr><tr><td style=\"display: none\">*</td><td>15 %<span style=\"background: LightGoldenRodYellow\"> (Details: UCUM  code% = '%')</span></td><td> </td></tr><tr><td style=\"display: none\">*</td><td> </td><td>50 %<span style=\"background: LightGoldenRodYellow\"> (Details: UCUM  code% = '%')</span></td></tr></table></div>"},"status":"final","category":[{"coding":[{"system":"http://terminology.hl7.org/CodeSystem/observation-category","code":"laboratory"}]}],"code":{"coding":[{"system":"http://loinc.org","code":"2502-3","display":"Iron saturation [Mass Fraction] in Serum or Plasma"}],"text":"Iron saturation [Mass Fraction] in Serum or Plasma"},"subject":{"reference":"urn:uuid:0608e4bf-c598-48e0-ae7b-20e52fa2158f"},"effectiveDateTime":"2025-01-19","performer":[{"display":"The Central European Lab"}],"valueQuantity":{"value":17.6,"unit":"%","system":"http://unitsofmeasure.org","code":"2502-3"},"referenceRange":[{"low":{"value":15,"system":"http://unitsofmeasure.org","code":"%"}},{"high":{"value":50,"system":"http://unitsofmeasure.org","code":"%"}}]}},{"fullUrl":"urn:uuid:9abfe2ba-223a-4542-b07f-873bf45e5432","resource":{"resourceType":"DeviceUseStatement","id":"9abfe2ba-223a-4542-b07f-873bf45e5432","meta":{"profile":["http://hl7.eu/fhir/eps/StructureDefinition/deviceUseStatement-eu-eps"]},"text":{"status":"generated","div":"<div xmlns=\"http://www.w3.org/1999/xhtml\"><a name=\"DeviceUseStatement_9abfe2ba-223a-4542-b07f-873bf45e5432\"> </a><table class=\"hl7__ips\"><tr><td>Blood glucose meter (physical object)</td><td><span class=\"nb\">1967-02-18</span></td></tr></table></div>"},"status":"active","subject":{"reference":"urn:uuid:0608e4bf-c598-48e0-ae7b-20e52fa2158f","display":"Ida Exel"},"timingPeriod":{"start":"1967-02-18"},"device":{"reference":"urn:uuid:cc446fef-49b5-42c8-9f83-ab453ce24ae4","display":"Blood glucose meter (physical object)"}}},{"fullUrl":"urn:uuid:9abfe2ba-223a-4542-b07f-873bf45e5432","resource":{"resourceType":"Device","id":"cc446fef-49b5-42c8-9f83-ab453ce24ae4","meta":{"profile":["http://hl7.eu/fhir/eps/StructureDefinition/device-eu-eps"]},"text":{"status":"generated","div":"<div xmlns=\"http://www.w3.org/1999/xhtml\"><a name=\"Device_cc446fef-49b5-42c8-9f83-ab453ce24ae4\"> </a><p class=\"res-header-id\"><b>Generated Narrative: Device cc446fef-49b5-42c8-9f83-ab453ce24ae4</b></p><a name=\"cc446fef-49b5-42c8-9f83-ab453ce24ae4\"> </a><a name=\"hccc446fef-49b5-42c8-9f83-ab453ce24ae4\"> </a><div style=\"display: inline-block; background-color: #d9e0e7; padding: 6px; margin: 4px; border: 1px solid #8da1b4; border-radius: 5px; line-height: 60%\"><p style=\"margin-bottom: 0px\"/><p style=\"margin-bottom: 0px\">Profile: <a href=\"StructureDefinition-device-eu-eps.html\">Device (EPS)</a></p></div><blockquote><p><b>udiCarrier</b></p><blockquote><p><b>id</b></p>(01)50828070674198(11)670128(17)920212(10)642693(21)58659</blockquote></blockquote><p><b>status</b>: Active</p><p><b>type</b>: <span title=\"Codes:{http://snomed.info/sct 337414009}\">Blood glucose meter (physical object)</span></p><p><b>patient</b>: <a href=\"Bundle-Instance-Bundle-77013a3f-bd32-4284-a08f-77750c8705bf.html#urn-uuid-0608e4bf-c598-48e0-ae7b-20e52fa2158f\">Ida Exel</a></p></div>"},"udiCarrier":[{"id":"(01)50828070674198(11)670128(17)920212(10)642693(21)58659"}],"status":"active","type":{"coding":[{"system":"http://snomed.info/sct","code":"337414009","display":"Blood glucose meter (physical object)"}]},"patient":{"reference":"urn:uuid:0608e4bf-c598-48e0-ae7b-20e52fa2158f","display":"Ida Exel"}}}]}