{"resourceType":"Bundle","id":"Instance-Bundle-fd87b2bb-d948-4d45-b334-8053ef6dceb0","meta":{"profile":["http://hl7.eu/fhir/eps/StructureDefinition/bundle-eu-eps"]},"identifier":{"system":"urn:oid:2.16.840.1.113883.2.51.999","value":"7e8b8f30-7ecd-4149-8d3d-cfb4df34821b","assigner":{"display":"HL7 Europe"}},"type":"document","timestamp":"2025-08-31T17:52:42Z","entry":[{"fullUrl":"urn:uuid:17144ffa-31df-4237-86a9-a1dbc180f248","resource":{"resourceType":"Composition","id":"17144ffa-31df-4237-86a9-a1dbc180f248","meta":{"profile":["http://hl7.eu/fhir/eps/StructureDefinition/composition-eu-eps"]},"text":{"status":"generated","div":"<div xmlns=\"http://www.w3.org/1999/xhtml\"><a name=\"Composition_17144ffa-31df-4237-86a9-a1dbc180f248\"> </a><p class=\"res-header-id\"><b>Generated Narrative: Composition 17144ffa-31df-4237-86a9-a1dbc180f248</b></p><a name=\"17144ffa-31df-4237-86a9-a1dbc180f248\"> </a><a name=\"hc17144ffa-31df-4237-86a9-a1dbc180f248\"> </a><div style=\"display: inline-block; background-color: #d9e0e7; padding: 6px; margin: 4px; border: 1px solid #8da1b4; border-radius: 5px; line-height: 60%\"><p style=\"margin-bottom: 0px\"/><p style=\"margin-bottom: 0px\">Profile: <a href=\"StructureDefinition-composition-eu-eps.html\">Composition (EPS)</a></p></div><p><b>identifier</b>: <code>urn:oid:2.16.840.1.113883.2.51.999</code>/e3879e4c-f067-4682-913d-128ea615a64b</p><p><b>status</b>: Final</p><p><b>type</b>: <span title=\"Codes:{http://loinc.org 60591-5}\">Patient summary Document</span></p><p><b>date</b>: 2025-08-31 17:52:42+0000</p><p><b>author</b>: <a href=\"Bundle-Instance-Bundle-fd87b2bb-d948-4d45-b334-8053ef6dceb0.html#urn-uuid-fb31c06b-50ce-4e54-8669-506c715b4ee1\">PractitionerRole</a></p><p><b>title</b>: European Patient Summary</p><p><b>confidentiality</b>: normal</p><p><b>custodian</b>: <a href=\"Bundle-Instance-Bundle-fd87b2bb-d948-4d45-b334-8053ef6dceb0.html#urn-uuid-96191506-879a-49e5-b62d-7e4a6103f003\">Organization Akershus universitetssykehus (AHUS)</a></p></div>"},"identifier":{"system":"urn:oid:2.16.840.1.113883.2.51.999","value":"e3879e4c-f067-4682-913d-128ea615a64b","assigner":{"display":"HL7 Europe"}},"status":"final","type":{"coding":[{"system":"http://loinc.org","code":"60591-5","display":"Patient summary Document"}],"text":"Patient summary Document"},"subject":{"reference":"urn:uuid:416efeac-7ff6-439a-a898-ea493416a9bc"},"date":"2025-08-31T17:52:42Z","author":[{"reference":"urn:uuid:fb31c06b-50ce-4e54-8669-506c715b4ee1"}],"title":"European Patient Summary","confidentiality":"N","custodian":{"reference":"urn:uuid:96191506-879a-49e5-b62d-7e4a6103f003"},"section":[{"title":"Problem list","code":{"coding":[{"system":"http://loinc.org","code":"11450-4","display":"Problem list - Reported"}]},"text":{"status":"generated","div":"<div xmlns=\"http://www.w3.org/1999/xhtml\"><table class=\"hl7__ips\"><tr><th>Condition</th><th>Onset Date</th><th>Status</th></tr><tr><td>Type 2 diabetes mellitus</td><td><span class=\"nb\">2024-08-19</span></td><td>active</td></tr><tr><td>Neuropathy due to type 2 diabetes mellitus</td><td><span class=\"nb\">2024-08-19</span></td><td>active</td></tr><tr><td>Chronic sinusitis</td><td><span class=\"nb\">2008-11-08</span></td><td>active</td></tr></table></div>"},"entry":[{"reference":"urn:uuid:3e0b1af0-e7fb-467c-8719-960de4af40d4"},{"reference":"urn:uuid:868f98f0-064c-492f-90f2-c210024d4d22"},{"reference":"urn:uuid:7f9831a1-bf7d-44d1-88d2-c5b32a224084"}]},{"title":"History of Past Illness","code":{"coding":[{"system":"http://loinc.org","code":"11348-0","display":"History of Past illness Narrative"}]},"text":{"status":"generated","div":"<div xmlns=\"http://www.w3.org/1999/xhtml\"><table class=\"hl7__ips\"><tr><th>Condition</th><th>Period</th><th>Status</th></tr><tr><td><span class=\"grayedout\">Viral sinusitis</span></td><td><span class=\"nb\">2021-10-21 – 2021-11-16</span></td><td><span class=\"grayedout\">inactive</span></td></tr><tr><td><span class=\"grayedout\">Viral sinusitis</span></td><td><span class=\"nb\">2018-04-20 – 2018-05-02</span></td><td><span class=\"grayedout\">inactive</span></td></tr><tr><td><span class=\"grayedout\">Acute bronchitis</span></td><td><span class=\"nb\">2017-10-07 – 2017-10-18</span></td><td><span class=\"grayedout\">inactive</span></td></tr><tr><td><span class=\"grayedout\">Acute bronchitis</span></td><td><span class=\"nb\">2016-09-26 – 2016-10-10</span></td><td><span class=\"grayedout\">inactive</span></td></tr></table></div>"},"entry":[{"reference":"urn:uuid:4e59217b-ac04-4419-a7b5-059a844f7050"},{"reference":"urn:uuid:cdcfaa92-02ea-4ed3-b3c1-582b699eade0"},{"reference":"urn:uuid:85aa32e6-92ce-46d5-b0ef-3c973515ca41"},{"reference":"urn:uuid:903b7967-3d6c-4a59-bfba-14f2cdc10935"}]},{"title":"Medication list","code":{"coding":[{"system":"http://loinc.org","code":"10160-0","display":"History of Medication use Narrative"}]},"text":{"status":"generated","div":"<div xmlns=\"http://www.w3.org/1999/xhtml\"><table class=\"hl7__ips\"><tr><td>No known medications</td><td/><td/><td/><td/></tr></table></div>"},"entry":[{"reference":"urn:uuid:4596fdfa-0615-4a2e-ab15-7c3ddd5030e9"},{"reference":"urn:uuid:4596fdfa-0615-4a2e-ab15-7c3ddd5030e9"}]},{"title":"Immunizations list","code":{"coding":[{"system":"http://loinc.org","code":"11369-6","display":"History of Immunization Narrative"}]},"text":{"status":"generated","div":"<div xmlns=\"http://www.w3.org/1999/xhtml\"><table class=\"hl7__ips\"><tr><th>Vaccine</th><th>Date</th></tr><tr><td>Influenza virus antigen only vaccine product</td><td><span class=\"nb\">2024-08-19</span></td></tr><tr><td>Hepatitis B virus antigen only vaccine product</td><td><span class=\"nb\">2021-08-16</span></td></tr><tr><td>Clostridium tetani toxoid antigen adsorbed only vaccine product</td><td><span class=\"nb\">2021-08-16</span></td></tr><tr><td>Neisseria meningitidis antigen-containing vaccine product</td><td><span class=\"nb\">2021-08-16</span></td></tr><tr><td>SARS-CoV-2 mRNA vaccine</td><td><span class=\"nb\">2021-08-16</span></td></tr></table></div>"},"entry":[{"reference":"urn:uuid:19a362b1-dbbb-4fe5-bd84-822e58e8b263"},{"reference":"urn:uuid:e6ecc6fc-d81f-4013-9d66-7eefa7f0cedd"},{"reference":"urn:uuid:515215b4-d58c-49b0-b38a-3e9308ef88da"},{"reference":"urn:uuid:150b7195-df6b-46b2-a668-e6ef31b5391e"},{"reference":"urn:uuid:3d331142-2efc-4dc2-abc0-b8e33c2c8ba4"}]},{"title":"Allergies and Intolerances","code":{"coding":[{"system":"http://loinc.org","code":"48765-2","display":"Allergies and adverse reactions Document"}]},"text":{"status":"generated","div":"<div xmlns=\"http://www.w3.org/1999/xhtml\"><table class=\"hl7__ips\"><tr><td>No known allergies or intolerances</td></tr></table></div>"},"entry":[{"reference":"urn:uuid:a2d9a237-fc0e-4926-a601-0540f29b739a"}]},{"title":"Care Plan","code":{"coding":[{"system":"http://loinc.org","code":"18776-5","display":"Plan of care note"}]},"text":{"status":"generated","div":"<div xmlns=\"http://www.w3.org/1999/xhtml\"><table class=\"hl7__ips\"><tr><th>Active Planned Care</th><th>Date</th><th>Reason</th></tr><tr><td>Diabetes self management plan</td><td><span class=\"nb\">2024-08-19</span></td><td>Diabetes mellitus type 2 (disorder)</td></tr></table></div>"},"entry":[{"reference":"urn:uuid:a1faf5e9-f832-4796-a029-c8690b3f82a3"}]},{"title":"Vital Signs","code":{"coding":[{"system":"http://loinc.org","code":"8716-3","display":"Vital signs"}]},"text":{"status":"generated","div":"<div xmlns=\"http://www.w3.org/1999/xhtml\"><table class=\"hl7__ips\"><tr><th>Vital Signs</th><th>2024-08-19</th><th>2021-08-16</th></tr><tr><td>Body Height</td><td>173.7 cm</td><td>173.7 cm</td></tr><tr><td>Pain severity - 0-10 verbal numeric rating [Score] - Reported</td><td>2 {score}</td><td>3 {score}</td></tr><tr><td>Body Weight</td><td>72.5 kg</td><td>68.7 kg</td></tr><tr><td>Body mass index (BMI) [Ratio]</td><td>24 kg/m2</td><td>22.8 kg/m2</td></tr><tr><td>Diastolic Blood Pressure</td><td>90 mm[Hg]</td><td>91 mm[Hg]</td></tr><tr><td>Systolic Blood Pressure</td><td>111 mm[Hg]</td><td>105 mm[Hg]</td></tr><tr><td>Heart rate</td><td>78 /min</td><td>66 /min</td></tr><tr><td>Respiratory rate</td><td>14 /min</td><td>12 /min</td></tr></table></div>"},"entry":[{"reference":"urn:uuid:04b5db72-309d-48e3-831d-4b7a92d86edd"},{"reference":"urn:uuid:18c2a5ac-e97c-40be-9f8a-bd6be89b91c3"},{"reference":"urn:uuid:421025b5-34f6-4875-82bd-9faa15422293"},{"reference":"urn:uuid:cd58d661-8f44-4db2-8592-95f4a8e57e6b"},{"reference":"urn:uuid:26d40cb9-af16-4ceb-96cb-d521da382a3c"},{"reference":"urn:uuid:7b3968d2-2765-4fb2-9cb9-0c1f12c033c5"},{"reference":"urn:uuid:84e7ea1e-8db2-4153-99a4-24e477d55456"},{"reference":"urn:uuid:a21407e2-81e2-4063-b7d1-88db450eda52"},{"reference":"urn:uuid:cbcc8523-c0b5-4f4c-a35a-4067f9692692"},{"reference":"urn:uuid:c7de5774-b12b-4a9c-b418-c575d00d629d"},{"reference":"urn:uuid:c9e68090-3f84-490a-9c63-075670193498"},{"reference":"urn:uuid:ced8f8f2-e337-4da7-9a6b-c7c09e41d7bc"},{"reference":"urn:uuid:042e4f72-862c-45fc-909c-68065504d791"},{"reference":"urn:uuid:26124fcd-2425-4374-8e27-0e637086288a"},{"reference":"urn:uuid:0b2c92be-192c-427c-9353-1462a347d250"},{"reference":"urn:uuid:8e9fc39c-e06d-4db5-99a1-5ff6f2ed9341"}]},{"title":"Relevant diagnostic tests/laboratory data","code":{"coding":[{"system":"http://loinc.org","code":"30954-2","display":"Relevant diagnostic tests/laboratory data note"}]},"text":{"status":"generated","div":"<div xmlns=\"http://www.w3.org/1999/xhtml\"><table class=\"hl7__ips\"><table class=\"hl7__ips\"><thead><tr><th>Recent Lab Observations</th><th>16 Aug 2021</th><th>Reference Range</th><th>Unit</th></tr></thead><tbody><tr><td>Hemoglobin A1c/Hemoglobin.total in Blood</td><td><strong>6.6 H</strong></td><td>4 - 6</td><td>%</td></tr><tr><td>Glucose [Mass/volume] in Blood</td><td>79.5</td><td>70 - 100</td><td>mg/dL</td></tr><tr><td>Urea nitrogen [Mass/volume] in Blood</td><td>14.4</td><td>7 - 20</td><td>mg/dL</td></tr><tr><td>Creatinine [Mass/volume] in Blood</td><td><strong>1.5 H</strong></td><td>0.6 - 1.3</td><td>mg/dL</td></tr><tr><td>Calcium [Mass/volume] in Blood</td><td>8.5</td><td>8.5 - 10.5</td><td>mg/dL</td></tr><tr><td>Sodium [Moles/volume] in Blood</td><td>142.5</td><td>135 - 145</td><td>mmol/L</td></tr><tr><td>Potassium [Moles/volume] in Blood</td><td>4.2</td><td>3.5 - 5</td><td>mmol/L</td></tr><tr><td>Chloride [Moles/volume] in Blood</td><td><strong>110.6 H</strong></td><td>98 - 108</td><td>mmol/L</td></tr><tr><td>Carbon dioxide, total [Moles/volume] in Blood</td><td>26.1</td><td>24 - 29</td><td>mmol/L</td></tr><tr><td>Cholesterol [Mass/volume] in Serum or Plasma</td><td>193.3</td><td>125 - 200</td><td>mg/dL</td></tr><tr><td>Triglyceride [Mass/volume] in Serum or Plasma</td><td>122.7</td><td>0 - 150</td><td>mg/dL</td></tr><tr><td>Cholesterol in LDL [Mass/volume] in Serum or Plasma by Direct assay</td><td>115.5</td><td>0 - 130</td><td>mg/dL</td></tr><tr><td>Cholesterol in HDL [Mass/volume] in Serum or Plasma</td><td>53.2</td><td>40 - 60</td><td>mg/dL</td></tr><tr><td>Microalbumin/Creatinine [Mass Ratio] in Urine</td><td>13.5</td><td>0 - 30</td><td>mg/g</td></tr></tbody></table></table></div>"},"entry":[{"reference":"urn:uuid:91883554-34bc-44bc-8c51-43eca0d45be4"},{"reference":"urn:uuid:e0b369a5-aa46-4ade-9de0-ab0e3e4f63c8"},{"reference":"urn:uuid:413cf0d8-f57a-494b-9774-92ae82776e8e"},{"reference":"urn:uuid:3badb1b1-a1d8-49af-80a9-6c4cf0968e48"},{"reference":"urn:uuid:4eccab53-95e3-4656-9ea3-d41008ea70de"},{"reference":"urn:uuid:63f96da2-5b5a-4ff4-9c83-0de1ee13a01e"},{"reference":"urn:uuid:10ea2b2e-b62c-4fed-84cc-fd0d0d451657"},{"reference":"urn:uuid:ba8a5508-671a-496d-9f29-01ccaf7e1231"},{"reference":"urn:uuid:ce2a9298-aa05-4fb3-9454-d9c668ec92f1"},{"reference":"urn:uuid:7f7f1408-e280-411b-b357-e8c632fe7635"},{"reference":"urn:uuid:af2ef9be-64bf-4908-963f-b8e491b57fd0"},{"reference":"urn:uuid:22b7f0e4-f938-4867-9bb4-4f126920743c"},{"reference":"urn:uuid:13cd010c-7ff6-4ce7-ba38-3584729486a1"},{"reference":"urn:uuid:383cef80-e73a-4aee-a62f-1b88cf150b52"}]},{"title":"Device Use","code":{"coding":[{"system":"http://loinc.org","code":"46264-8","display":"History of medical device use"}]},"text":{"status":"generated","div":"<div xmlns=\"http://www.w3.org/1999/xhtml\"><table class=\"hl7__ips\"><tr><th>Device</th><th>Date (since)</th></tr><tr><td>Blood glucose meter (physical object)</td><td><span class=\"nb\">2024-08-19</span></td></tr><tr><td>Home nebulizer (physical object)</td><td><span class=\"nb\">2008-11-08</span></td></tr></table></div>"},"entry":[{"reference":"urn:uuid:9b0a6002-c292-4e10-923b-b5542d977e70"},{"reference":"urn:uuid:763a7ce0-a1d5-477c-89ae-156e2ec78cad"}]}]}},{"fullUrl":"urn:uuid:416efeac-7ff6-439a-a898-ea493416a9bc","resource":{"resourceType":"Patient","id":"416efeac-7ff6-439a-a898-ea493416a9bc","meta":{"profile":["http://hl7.eu/fhir/eps/StructureDefinition/patient-eu-eps"]},"text":{"status":"generated","div":"<div xmlns=\"http://www.w3.org/1999/xhtml\"><a name=\"Patient_416efeac-7ff6-439a-a898-ea493416a9bc\"> </a><table class=\"hl7__ips\"><tr><td>Filip Berg</td><td>2000-03-28</td></tr></table></div>"},"identifier":[{"type":{"coding":[{"system":"http://terminology.hl7.org/CodeSystem/v2-0203","code":"JHN"}]},"system":"http://ec.europa.eu/identifier/eci","value":"8302-090286-8"},{"type":{"coding":[{"system":"http://terminology.hl7.org/CodeSystem/v2-0203","code":"MR"}]},"system":"http://local.setting.eu/identifier","value":"b86f46da-d8ad-98f8-055d-bff1f1109e0b"}],"name":[{"text":"Filip Berg","family":"Berg","given":["Filip"]}],"telecom":[{"system":"phone","value":"+47 932 93 683"}],"gender":"male","birthDate":"2000-03-28","address":[{"use":"home","type":"physical","line":["Lundåsveien 48"],"city":"Oslo","postalCode":"1089","country":"Norway"}]}},{"fullUrl":"urn:uuid:fb31c06b-50ce-4e54-8669-506c715b4ee1","resource":{"resourceType":"PractitionerRole","id":"fb31c06b-50ce-4e54-8669-506c715b4ee1","meta":{"profile":["http://hl7.eu/fhir/base/StructureDefinition/practitionerRole-eu"]},"text":{"status":"generated","div":"<div xmlns=\"http://www.w3.org/1999/xhtml\"><a name=\"PractitionerRole_fb31c06b-50ce-4e54-8669-506c715b4ee1\"> </a><p class=\"res-header-id\"><b>Generated Narrative: PractitionerRole fb31c06b-50ce-4e54-8669-506c715b4ee1</b></p><a name=\"fb31c06b-50ce-4e54-8669-506c715b4ee1\"> </a><a name=\"hcfb31c06b-50ce-4e54-8669-506c715b4ee1\"> </a><div style=\"display: inline-block; background-color: #d9e0e7; padding: 6px; margin: 4px; border: 1px solid #8da1b4; border-radius: 5px; line-height: 60%\"><p style=\"margin-bottom: 0px\"/><p style=\"margin-bottom: 0px\">Profile: <a href=\"https://build.fhir.org/ig/hl7-eu/base/StructureDefinition-practitionerRole-eu.html\">PractitionerRole (EU base)</a></p></div><p><b>practitioner</b>: <a href=\"Bundle-Instance-Bundle-fd87b2bb-d948-4d45-b334-8053ef6dceb0.html#urn-uuid-8660c96f-f811-46ef-ac1c-5145f06ba5c2\">Practitioner Hel Ping </a></p><p><b>organization</b>: <a href=\"Bundle-Instance-Bundle-fd87b2bb-d948-4d45-b334-8053ef6dceb0.html#urn-uuid-96191506-879a-49e5-b62d-7e4a6103f003\">Organization Akershus universitetssykehus (AHUS)</a></p></div>"},"practitioner":{"reference":"urn:uuid:8660c96f-f811-46ef-ac1c-5145f06ba5c2"},"organization":{"reference":"urn:uuid:96191506-879a-49e5-b62d-7e4a6103f003"}}},{"fullUrl":"urn:uuid:8660c96f-f811-46ef-ac1c-5145f06ba5c2","resource":{"resourceType":"Practitioner","id":"8660c96f-f811-46ef-ac1c-5145f06ba5c2","meta":{"profile":["http://hl7.eu/fhir/base/StructureDefinition/practitioner-eu"]},"text":{"status":"generated","div":"<div xmlns=\"http://www.w3.org/1999/xhtml\"><a name=\"Practitioner_8660c96f-f811-46ef-ac1c-5145f06ba5c2\"> </a><p class=\"res-header-id\"><b>Generated Narrative: Practitioner 8660c96f-f811-46ef-ac1c-5145f06ba5c2</b></p><a name=\"8660c96f-f811-46ef-ac1c-5145f06ba5c2\"> </a><a name=\"hc8660c96f-f811-46ef-ac1c-5145f06ba5c2\"> </a><div style=\"display: inline-block; background-color: #d9e0e7; padding: 6px; margin: 4px; border: 1px solid #8da1b4; border-radius: 5px; line-height: 60%\"><p style=\"margin-bottom: 0px\"/><p style=\"margin-bottom: 0px\">Profile: <a href=\"https://build.fhir.org/ig/hl7-eu/base/StructureDefinition-practitioner-eu.html\">Practitioner (EU base)</a></p></div><p><b>name</b>: Hel Ping </p></div>"},"name":[{"family":"Ping","given":["Hel"],"prefix":["Dr."]}]}},{"fullUrl":"urn:uuid:96191506-879a-49e5-b62d-7e4a6103f003","resource":{"resourceType":"Organization","id":"96191506-879a-49e5-b62d-7e4a6103f003","meta":{"profile":["http://hl7.eu/fhir/base/StructureDefinition/organization-eu"]},"text":{"status":"generated","div":"<div xmlns=\"http://www.w3.org/1999/xhtml\"><a name=\"Organization_96191506-879a-49e5-b62d-7e4a6103f003\"> </a><p class=\"res-header-id\"><b>Generated Narrative: Organization 96191506-879a-49e5-b62d-7e4a6103f003</b></p><a name=\"96191506-879a-49e5-b62d-7e4a6103f003\"> </a><a name=\"hc96191506-879a-49e5-b62d-7e4a6103f003\"> </a><div style=\"display: inline-block; background-color: #d9e0e7; padding: 6px; margin: 4px; border: 1px solid #8da1b4; border-radius: 5px; line-height: 60%\"><p style=\"margin-bottom: 0px\"/><p style=\"margin-bottom: 0px\">Profile: <a href=\"https://build.fhir.org/ig/hl7-eu/base/StructureDefinition-organization-eu.html\">Organization (EU base)</a></p></div><p><b>identifier</b>: <code>urn:oid:2.16.840.1.113883.2.51.999</code>/c5efcf95-c682-4b84-a0ce-b27067c22dbb</p><p><b>name</b>: Akershus universitetssykehus (AHUS)</p><p><b>address</b>: Sykehuseveien 25.0 Nordbyhagen 1474 Norway </p></div>"},"identifier":[{"system":"urn:oid:2.16.840.1.113883.2.51.999","value":"c5efcf95-c682-4b84-a0ce-b27067c22dbb","assigner":{"display":"HL7 Europe"}}],"name":"Akershus universitetssykehus (AHUS)","address":[{"line":["Sykehuseveien 25.0"],"city":"Nordbyhagen","postalCode":"1474","country":"Norway"}]}},{"fullUrl":"urn:uuid:3e0b1af0-e7fb-467c-8719-960de4af40d4","resource":{"resourceType":"Condition","id":"3e0b1af0-e7fb-467c-8719-960de4af40d4","meta":{"profile":["http://hl7.org/fhir/uv/ips/StructureDefinition/Condition-uv-ips"]},"text":{"status":"generated","div":"<div xmlns=\"http://www.w3.org/1999/xhtml\"><a name=\"Condition_3e0b1af0-e7fb-467c-8719-960de4af40d4\"> </a><table class=\"hl7__ips\"><tr><td>Type 2 diabetes mellitus</td><td><span class=\"nb\">2024-08-19</span></td><td>active</td></tr></table></div>"},"clinicalStatus":{"coding":[{"system":"http://terminology.hl7.org/CodeSystem/condition-clinical","code":"active"}]},"category":[{"coding":[{"system":"http://terminology.hl7.org/CodeSystem/condition-category","code":"problem-list-item","display":"Problem List Item"}]}],"code":{"coding":[{"system":"http://snomed.info/sct","code":"44054006","display":"Diabetes mellitus type 2 (disorder)"}],"text":"Type 2 diabetes mellitus"},"subject":{"reference":"urn:uuid:416efeac-7ff6-439a-a898-ea493416a9bc","display":"Filip Berg"},"onsetDateTime":"2024-08-19","asserter":{"reference":"urn:uuid:8660c96f-f811-46ef-ac1c-5145f06ba5c2","display":"Dr. Hel Ping"}}},{"fullUrl":"urn:uuid:868f98f0-064c-492f-90f2-c210024d4d22","resource":{"resourceType":"Condition","id":"868f98f0-064c-492f-90f2-c210024d4d22","meta":{"profile":["http://hl7.org/fhir/uv/ips/StructureDefinition/Condition-uv-ips"]},"text":{"status":"generated","div":"<div xmlns=\"http://www.w3.org/1999/xhtml\"><a name=\"Condition_868f98f0-064c-492f-90f2-c210024d4d22\"> </a><table class=\"hl7__ips\"><tr><td>Neuropathy due to type 2 diabetes mellitus</td><td><span class=\"nb\">2024-08-19</span></td><td>active</td></tr></table></div>"},"clinicalStatus":{"coding":[{"system":"http://terminology.hl7.org/CodeSystem/condition-clinical","code":"active"}]},"category":[{"coding":[{"system":"http://terminology.hl7.org/CodeSystem/condition-category","code":"problem-list-item","display":"Problem List Item"}]}],"code":{"coding":[{"system":"http://snomed.info/sct","code":"368581000119106","display":"Neuropathy due to type 2 diabetes mellitus (disorder)"}],"text":"Neuropathy due to type 2 diabetes mellitus"},"subject":{"reference":"urn:uuid:416efeac-7ff6-439a-a898-ea493416a9bc","display":"Filip Berg"},"onsetDateTime":"2024-08-19","asserter":{"reference":"urn:uuid:8660c96f-f811-46ef-ac1c-5145f06ba5c2","display":"Dr. Hel Ping"}}},{"fullUrl":"urn:uuid:7f9831a1-bf7d-44d1-88d2-c5b32a224084","resource":{"resourceType":"Condition","id":"7f9831a1-bf7d-44d1-88d2-c5b32a224084","meta":{"profile":["http://hl7.org/fhir/uv/ips/StructureDefinition/Condition-uv-ips"]},"text":{"status":"generated","div":"<div xmlns=\"http://www.w3.org/1999/xhtml\"><a name=\"Condition_7f9831a1-bf7d-44d1-88d2-c5b32a224084\"> </a><table class=\"hl7__ips\"><tr><td>Chronic sinusitis</td><td><span class=\"nb\">2008-11-08</span></td><td>active</td></tr></table></div>"},"clinicalStatus":{"coding":[{"system":"http://terminology.hl7.org/CodeSystem/condition-clinical","code":"active"}]},"category":[{"coding":[{"system":"http://terminology.hl7.org/CodeSystem/condition-category","code":"problem-list-item","display":"Problem List Item"}]}],"code":{"coding":[{"system":"http://snomed.info/sct","code":"40055000","display":"Chronic sinusitis (disorder)"}],"text":"Chronic sinusitis"},"subject":{"reference":"urn:uuid:416efeac-7ff6-439a-a898-ea493416a9bc","display":"Filip Berg"},"onsetDateTime":"2008-11-08","asserter":{"reference":"urn:uuid:8660c96f-f811-46ef-ac1c-5145f06ba5c2","display":"Dr. Hel Ping"}}},{"fullUrl":"urn:uuid:4e59217b-ac04-4419-a7b5-059a844f7050","resource":{"resourceType":"Condition","id":"4e59217b-ac04-4419-a7b5-059a844f7050","meta":{"profile":["http://hl7.org/fhir/uv/ips/StructureDefinition/Condition-uv-ips"]},"text":{"status":"generated","div":"<div xmlns=\"http://www.w3.org/1999/xhtml\"><a name=\"Condition_4e59217b-ac04-4419-a7b5-059a844f7050\"> </a><table class=\"hl7__ips\"><tr><td><span class=\"grayedout\">Viral sinusitis</span></td><td><span class=\"nb\">2021-10-21 – 2021-11-16</span></td><td><span class=\"grayedout\">inactive</span></td></tr></table></div>"},"clinicalStatus":{"coding":[{"system":"http://terminology.hl7.org/CodeSystem/condition-clinical","code":"inactive"}]},"category":[{"coding":[{"system":"http://terminology.hl7.org/CodeSystem/condition-category","code":"problem-list-item","display":"Problem List Item"}]}],"code":{"coding":[{"system":"http://snomed.info/sct","code":"444814009","display":"Viral sinusitis (disorder)"}],"text":"Viral sinusitis"},"subject":{"reference":"urn:uuid:416efeac-7ff6-439a-a898-ea493416a9bc","display":"Filip Berg"},"onsetDateTime":"2021-10-21","abatementDateTime":"2021-11-16","asserter":{"reference":"urn:uuid:8660c96f-f811-46ef-ac1c-5145f06ba5c2","display":"Dr. Hel Ping"}}},{"fullUrl":"urn:uuid:cdcfaa92-02ea-4ed3-b3c1-582b699eade0","resource":{"resourceType":"Condition","id":"cdcfaa92-02ea-4ed3-b3c1-582b699eade0","meta":{"profile":["http://hl7.org/fhir/uv/ips/StructureDefinition/Condition-uv-ips"]},"text":{"status":"generated","div":"<div xmlns=\"http://www.w3.org/1999/xhtml\"><a name=\"Condition_cdcfaa92-02ea-4ed3-b3c1-582b699eade0\"> </a><table class=\"hl7__ips\"><tr><td><span class=\"grayedout\">Viral sinusitis</span></td><td><span class=\"nb\">2018-04-20 – 2018-05-02</span></td><td><span class=\"grayedout\">inactive</span></td></tr></table></div>"},"clinicalStatus":{"coding":[{"system":"http://terminology.hl7.org/CodeSystem/condition-clinical","code":"inactive"}]},"category":[{"coding":[{"system":"http://terminology.hl7.org/CodeSystem/condition-category","code":"problem-list-item","display":"Problem List Item"}]}],"code":{"coding":[{"system":"http://snomed.info/sct","code":"444814009","display":"Viral sinusitis (disorder)"}],"text":"Viral sinusitis"},"subject":{"reference":"urn:uuid:416efeac-7ff6-439a-a898-ea493416a9bc","display":"Filip Berg"},"onsetDateTime":"2018-04-20","abatementDateTime":"2018-05-02","asserter":{"reference":"urn:uuid:8660c96f-f811-46ef-ac1c-5145f06ba5c2","display":"Dr. Hel Ping"}}},{"fullUrl":"urn:uuid:85aa32e6-92ce-46d5-b0ef-3c973515ca41","resource":{"resourceType":"Condition","id":"85aa32e6-92ce-46d5-b0ef-3c973515ca41","meta":{"profile":["http://hl7.org/fhir/uv/ips/StructureDefinition/Condition-uv-ips"]},"text":{"status":"generated","div":"<div xmlns=\"http://www.w3.org/1999/xhtml\"><a name=\"Condition_85aa32e6-92ce-46d5-b0ef-3c973515ca41\"> </a><table class=\"hl7__ips\"><tr><td><span class=\"grayedout\">Acute bronchitis</span></td><td><span class=\"nb\">2017-10-07 – 2017-10-18</span></td><td><span class=\"grayedout\">inactive</span></td></tr></table></div>"},"clinicalStatus":{"coding":[{"system":"http://terminology.hl7.org/CodeSystem/condition-clinical","code":"inactive"}]},"category":[{"coding":[{"system":"http://terminology.hl7.org/CodeSystem/condition-category","code":"problem-list-item","display":"Problem List Item"}]}],"code":{"coding":[{"system":"http://snomed.info/sct","code":"10509002","display":"Acute bronchitis (disorder)"}],"text":"Acute bronchitis"},"subject":{"reference":"urn:uuid:416efeac-7ff6-439a-a898-ea493416a9bc","display":"Filip Berg"},"onsetDateTime":"2017-10-07","abatementDateTime":"2017-10-18","asserter":{"reference":"urn:uuid:8660c96f-f811-46ef-ac1c-5145f06ba5c2","display":"Dr. Hel Ping"}}},{"fullUrl":"urn:uuid:903b7967-3d6c-4a59-bfba-14f2cdc10935","resource":{"resourceType":"Condition","id":"903b7967-3d6c-4a59-bfba-14f2cdc10935","meta":{"profile":["http://hl7.org/fhir/uv/ips/StructureDefinition/Condition-uv-ips"]},"text":{"status":"generated","div":"<div xmlns=\"http://www.w3.org/1999/xhtml\"><a name=\"Condition_903b7967-3d6c-4a59-bfba-14f2cdc10935\"> </a><table class=\"hl7__ips\"><tr><td><span class=\"grayedout\">Acute bronchitis</span></td><td><span class=\"nb\">2016-09-26 – 2016-10-10</span></td><td><span class=\"grayedout\">inactive</span></td></tr></table></div>"},"clinicalStatus":{"coding":[{"system":"http://terminology.hl7.org/CodeSystem/condition-clinical","code":"inactive"}]},"category":[{"coding":[{"system":"http://terminology.hl7.org/CodeSystem/condition-category","code":"problem-list-item","display":"Problem List Item"}]}],"code":{"coding":[{"system":"http://snomed.info/sct","code":"10509002","display":"Acute bronchitis (disorder)"}],"text":"Acute bronchitis"},"subject":{"reference":"urn:uuid:416efeac-7ff6-439a-a898-ea493416a9bc","display":"Filip Berg"},"onsetDateTime":"2016-09-26","abatementDateTime":"2016-10-10","asserter":{"reference":"urn:uuid:8660c96f-f811-46ef-ac1c-5145f06ba5c2","display":"Dr. Hel Ping"}}},{"fullUrl":"urn:uuid:4596fdfa-0615-4a2e-ab15-7c3ddd5030e9","resource":{"resourceType":"MedicationStatement","id":"4596fdfa-0615-4a2e-ab15-7c3ddd5030e9","meta":{"profile":["http://hl7.eu/fhir/eps/StructureDefinition/MedicationStatement-eu-eps"]},"text":{"status":"generated","div":"<div xmlns=\"http://www.w3.org/1999/xhtml\"><a name=\"MedicationStatement_4596fdfa-0615-4a2e-ab15-7c3ddd5030e9\"> </a><table class=\"hl7__ips\"><tr><td>No known medications</td><td/><td/><td/><td/></tr></table></div>"},"status":"active","medicationCodeableConcept":{"coding":[{"system":"http://snomed.info/sct","code":"787481004","display":"No known medications (situation)"}]},"subject":{"reference":"urn:uuid:416efeac-7ff6-439a-a898-ea493416a9bc","display":"Filip Berg"},"effectivePeriod":{"extension":[{"url":"http://hl7.org/fhir/StructureDefinition/data-absent-reason","valueCode":"unknown"}]}}},{"fullUrl":"urn:uuid:4596fdfa-0615-4a2e-ab15-7c3ddd5030e9","resource":{"resourceType":"MedicationStatement","id":"4596fdfa-0615-4a2e-ab15-7c3ddd5030e9","meta":{"profile":["http://hl7.eu/fhir/eps/StructureDefinition/MedicationStatement-eu-eps"]},"text":{"status":"generated","div":"<div xmlns=\"http://www.w3.org/1999/xhtml\"><a name=\"MedicationStatement_4596fdfa-0615-4a2e-ab15-7c3ddd5030e9\"> </a><table class=\"hl7__ips\"><tr><td>No known medications</td><td/><td/><td/><td/></tr></table></div>"},"status":"active","medicationCodeableConcept":{"coding":[{"system":"http://snomed.info/sct","code":"787481004","display":"No known medications (situation)"}]},"subject":{"reference":"urn:uuid:416efeac-7ff6-439a-a898-ea493416a9bc","display":"Filip Berg"},"effectivePeriod":{"extension":[{"url":"http://hl7.org/fhir/StructureDefinition/data-absent-reason","valueCode":"unknown"}]}}},{"fullUrl":"urn:uuid:19a362b1-dbbb-4fe5-bd84-822e58e8b263","resource":{"resourceType":"Immunization","id":"19a362b1-dbbb-4fe5-bd84-822e58e8b263","meta":{"profile":["http://hl7.org/fhir/uv/ips/StructureDefinition/Immunization-uv-ips"]},"text":{"status":"generated","div":"<div xmlns=\"http://www.w3.org/1999/xhtml\"><a name=\"Immunization_19a362b1-dbbb-4fe5-bd84-822e58e8b263\"> </a><table class=\"hl7__ips\"><tr><td>Influenza virus antigen only vaccine product</td><td><span class=\"nb\">2024-08-19</span></td></tr></table></div>"},"status":"completed","vaccineCode":{"coding":[{"system":"http://snomed.info/sct","code":"1181000221105","display":"Vaccine product containing only Influenza virus antigen (medicinal product)"},{"system":"http://www.whocc.no/atc","code":"J07BB02","display":"influenza, inactivated, split virus or surface antigen"},{"system":"http://hl7.org/fhir/sid/cvx","code":"140","display":"Influenza  seasonal  injectable  preservative free"}],"text":"Influenza virus antigen only vaccine product"},"patient":{"reference":"urn:uuid:416efeac-7ff6-439a-a898-ea493416a9bc","display":"Filip Berg"},"occurrenceDateTime":"2024-08-19","lotNumber":"YY-WlLhkEC","expirationDate":"2025-05-07","site":{"coding":[{"system":"http://snomed.info/sct","code":"244979005","display":"Entire muscle of upper arm"}],"text":"Entire muscle of upper arm"},"route":{"coding":[{"system":"http://snomed.info/sct","code":"78421000","display":"Intramuscular route"}],"text":"Intramuscular route"}}},{"fullUrl":"urn:uuid:e6ecc6fc-d81f-4013-9d66-7eefa7f0cedd","resource":{"resourceType":"Immunization","id":"e6ecc6fc-d81f-4013-9d66-7eefa7f0cedd","meta":{"profile":["http://hl7.org/fhir/uv/ips/StructureDefinition/Immunization-uv-ips"]},"text":{"status":"generated","div":"<div xmlns=\"http://www.w3.org/1999/xhtml\"><a name=\"Immunization_e6ecc6fc-d81f-4013-9d66-7eefa7f0cedd\"> </a><table class=\"hl7__ips\"><tr><td>Hepatitis B virus antigen only vaccine product</td><td><span class=\"nb\">2021-08-16</span></td></tr></table></div>"},"status":"completed","vaccineCode":{"coding":[{"system":"http://snomed.info/sct","code":"871822003","display":"Vaccine product containing Hepatitis B virus antigen"},{"system":"http://www.whocc.no/atc","code":"J07BC01","display":"Hepatitis B vaccines"},{"system":"http://hl7.org/fhir/sid/cvx","code":"43","display":"Hep B  adult"}],"text":"Hepatitis B virus antigen only vaccine product"},"patient":{"reference":"urn:uuid:416efeac-7ff6-439a-a898-ea493416a9bc","display":"Filip Berg"},"occurrenceDateTime":"2021-08-16","lotNumber":"NJ-cBOqTP","expirationDate":"2021-11-04","site":{"coding":[{"system":"http://snomed.info/sct","code":"244979005","display":"Entire muscle of upper arm"}],"text":"Entire muscle of upper arm"},"route":{"coding":[{"system":"http://snomed.info/sct","code":"78421000","display":"Intramuscular route"}],"text":"Intramuscular route"}}},{"fullUrl":"urn:uuid:515215b4-d58c-49b0-b38a-3e9308ef88da","resource":{"resourceType":"Immunization","id":"515215b4-d58c-49b0-b38a-3e9308ef88da","meta":{"profile":["http://hl7.org/fhir/uv/ips/StructureDefinition/Immunization-uv-ips"]},"text":{"status":"generated","div":"<div xmlns=\"http://www.w3.org/1999/xhtml\"><a name=\"Immunization_515215b4-d58c-49b0-b38a-3e9308ef88da\"> </a><table class=\"hl7__ips\"><tr><td>Clostridium tetani toxoid antigen adsorbed only vaccine product</td><td><span class=\"nb\">2021-08-16</span></td></tr></table></div>"},"status":"completed","vaccineCode":{"coding":[{"system":"http://snomed.info/sct","code":"777725002","display":"Vaccine product containing only Clostridium tetani toxoid antigen adsorbed (medicinal product)"},{"system":"http://www.whocc.no/atc","code":"J07AM51","display":"tetanus toxoid, combinations with diphtheria toxoid"},{"system":"http://hl7.org/fhir/sid/cvx","code":"113","display":"Td (adult)  5 Lf tetanus toxoid  preservative free  adsorbed"}],"text":"Clostridium tetani toxoid antigen adsorbed only vaccine product"},"patient":{"reference":"urn:uuid:416efeac-7ff6-439a-a898-ea493416a9bc","display":"Filip Berg"},"occurrenceDateTime":"2021-08-16","lotNumber":"KX-m3VmgRXl","expirationDate":"2022-03-18","site":{"coding":[{"system":"http://snomed.info/sct","code":"244979005","display":"Entire muscle of upper arm"}],"text":"Entire muscle of upper arm"},"route":{"coding":[{"system":"http://snomed.info/sct","code":"78421000","display":"Intramuscular route"}],"text":"Intramuscular route"}}},{"fullUrl":"urn:uuid:150b7195-df6b-46b2-a668-e6ef31b5391e","resource":{"resourceType":"Immunization","id":"150b7195-df6b-46b2-a668-e6ef31b5391e","meta":{"profile":["http://hl7.org/fhir/uv/ips/StructureDefinition/Immunization-uv-ips"]},"text":{"status":"generated","div":"<div xmlns=\"http://www.w3.org/1999/xhtml\"><a name=\"Immunization_150b7195-df6b-46b2-a668-e6ef31b5391e\"> </a><table class=\"hl7__ips\"><tr><td>Neisseria meningitidis antigen-containing vaccine product</td><td><span class=\"nb\">2021-08-16</span></td></tr></table></div>"},"status":"completed","vaccineCode":{"coding":[{"system":"http://snomed.info/sct","code":"836401009","display":"Vaccine product containing Neisseria meningitidis antigen"},{"system":"http://www.whocc.no/atc","code":"J07AH08","display":"Meningococcal vaccines, conjugated"},{"system":"http://hl7.org/fhir/sid/cvx","code":"114","display":"meningococcal MCV4P"}],"text":"Neisseria meningitidis antigen-containing vaccine product"},"patient":{"reference":"urn:uuid:416efeac-7ff6-439a-a898-ea493416a9bc","display":"Filip Berg"},"occurrenceDateTime":"2021-08-16","lotNumber":"VG-CHrrcvGK","expirationDate":"2022-01-16","site":{"coding":[{"system":"http://snomed.info/sct","code":"244979005","display":"Entire muscle of upper arm"}],"text":"Entire muscle of upper arm"},"route":{"coding":[{"system":"http://snomed.info/sct","code":"78421000","display":"Intramuscular route"}],"text":"Intramuscular route"}}},{"fullUrl":"urn:uuid:3d331142-2efc-4dc2-abc0-b8e33c2c8ba4","resource":{"resourceType":"Immunization","id":"3d331142-2efc-4dc2-abc0-b8e33c2c8ba4","meta":{"profile":["http://hl7.org/fhir/uv/ips/StructureDefinition/Immunization-uv-ips"]},"text":{"status":"generated","div":"<div xmlns=\"http://www.w3.org/1999/xhtml\"><a name=\"Immunization_3d331142-2efc-4dc2-abc0-b8e33c2c8ba4\"> </a><table class=\"hl7__ips\"><tr><td>SARS-CoV-2 mRNA vaccine</td><td><span class=\"nb\">2021-08-16</span></td></tr></table></div>"},"status":"completed","vaccineCode":{"coding":[{"system":"http://snomed.info/sct","code":"1119349007","display":"Vaccine product containing SARS-CoV-2 mRNA"},{"system":"http://www.whocc.no/atc","code":"J07BX03","display":"COVID-19 mRNA vaccines"},{"system":"http://hl7.org/fhir/sid/cvx","code":"208","display":"SARS-COV-2 (COVID-19) vaccine  mRNA  spike protein  LNP  preservative free  30 mcg/0.3mL dose"}],"text":"SARS-CoV-2 mRNA vaccine"},"patient":{"reference":"urn:uuid:416efeac-7ff6-439a-a898-ea493416a9bc","display":"Filip Berg"},"occurrenceDateTime":"2021-08-16","lotNumber":"XI-aQJrLXP","expirationDate":"2022-05-13","site":{"coding":[{"system":"http://snomed.info/sct","code":"244979005","display":"Entire muscle of upper arm"}],"text":"Entire muscle of upper arm"},"route":{"coding":[{"system":"http://snomed.info/sct","code":"78421000","display":"Intramuscular route"}],"text":"Intramuscular route"}}},{"fullUrl":"urn:uuid:a2d9a237-fc0e-4926-a601-0540f29b739a","resource":{"resourceType":"AllergyIntolerance","id":"a2d9a237-fc0e-4926-a601-0540f29b739a","meta":{"profile":["http://hl7.eu/fhir/eps/StructureDefinition/allergyIntolerance-eu-eps"]},"text":{"status":"generated","div":"<div xmlns=\"http://www.w3.org/1999/xhtml\"><a name=\"AllergyIntolerance_a2d9a237-fc0e-4926-a601-0540f29b739a\"> </a><table class=\"hl7__ips\"><tr><td>No known allergies or intolerances</td></tr></table></div>"},"code":{"coding":[{"system":"http://snomed.info/sct","code":"716186003","display":"No known allergy (situation)"}]},"patient":{"reference":"urn:uuid:416efeac-7ff6-439a-a898-ea493416a9bc","display":"Filip Berg"},"_onsetDateTime":{"extension":[{"url":"http://hl7.org/fhir/StructureDefinition/data-absent-reason","valueCode":"unknown"}]}}},{"fullUrl":"urn:uuid:a1faf5e9-f832-4796-a029-c8690b3f82a3","resource":{"resourceType":"CarePlan","id":"a1faf5e9-f832-4796-a029-c8690b3f82a3","text":{"status":"generated","div":"<div xmlns=\"http://www.w3.org/1999/xhtml\"><a name=\"CarePlan_a1faf5e9-f832-4796-a029-c8690b3f82a3\"> </a><table class=\"hl7__ips\"><tr><td>Diabetes self management plan</td><td><span class=\"nb\">2024-08-19</span></td><td>Diabetes mellitus type 2 (disorder)</td></tr></table></div>"},"status":"active","intent":"plan","category":[{"coding":[{"system":"http://terminology.hl7.org/CodeSystem/care-plan-category","code":"assess-plan","display":"Assessment and Plan"}]}],"subject":{"reference":"urn:uuid:416efeac-7ff6-439a-a898-ea493416a9bc","display":"Filip Berg"},"period":{"start":"2024-08-19"},"activity":[{"detail":{"kind":"appointment","code":{"coding":[{"system":"http://snomed.info/sct","code":"698360004","display":"Diabetes self management plan (qualifier value)"}]},"reasonCode":[{"coding":[{"system":"http://snomed.info/sct","code":"44054006","display":"Diabetes mellitus type 2 (disorder)"}]}],"status":"unknown","description":"Diabetes self management plan"}}]}},{"fullUrl":"urn:uuid:04b5db72-309d-48e3-831d-4b7a92d86edd","resource":{"resourceType":"Observation","id":"04b5db72-309d-48e3-831d-4b7a92d86edd","meta":{"profile":["http://hl7.org/fhir/StructureDefinition/vitalsigns"]},"text":{"status":"generated","div":"<div xmlns=\"http://www.w3.org/1999/xhtml\"><a name=\"Observation_04b5db72-309d-48e3-831d-4b7a92d86edd\"> </a><table class=\"hl7__ips\"><tr><td>Body Height</td><td>173.7 cm</td></tr></table></div>"},"status":"final","category":[{"coding":[{"system":"http://terminology.hl7.org/CodeSystem/observation-category","code":"vital-signs","display":"Vital Signs"}]}],"code":{"coding":[{"system":"http://loinc.org","code":"8302-2","display":"Body Height"}]},"subject":{"reference":"urn:uuid:416efeac-7ff6-439a-a898-ea493416a9bc","display":"Filip Berg"},"effectiveDateTime":"2024-08-19","valueQuantity":{"value":173.7,"unit":"cm","code":"cm"}}},{"fullUrl":"urn:uuid:18c2a5ac-e97c-40be-9f8a-bd6be89b91c3","resource":{"resourceType":"Observation","id":"18c2a5ac-e97c-40be-9f8a-bd6be89b91c3","meta":{"profile":["http://hl7.org/fhir/StructureDefinition/vitalsigns"]},"text":{"status":"generated","div":"<div xmlns=\"http://www.w3.org/1999/xhtml\"><a name=\"Observation_18c2a5ac-e97c-40be-9f8a-bd6be89b91c3\"> </a><table class=\"hl7__ips\"><tr><td>Pain severity - 0-10 verbal numeric rating [Score] - Reported</td><td>2 {score}</td></tr></table></div>"},"status":"final","category":[{"coding":[{"system":"http://terminology.hl7.org/CodeSystem/observation-category","code":"vital-signs","display":"Vital Signs"}]}],"code":{"coding":[{"system":"http://loinc.org","code":"72514-3","display":"Pain severity - 0-10 verbal numeric rating [Score] - Reported"}]},"subject":{"reference":"urn:uuid:416efeac-7ff6-439a-a898-ea493416a9bc","display":"Filip Berg"},"effectiveDateTime":"2024-08-19","valueQuantity":{"value":2,"unit":"{score}","code":"{score}"}}},{"fullUrl":"urn:uuid:421025b5-34f6-4875-82bd-9faa15422293","resource":{"resourceType":"Observation","id":"421025b5-34f6-4875-82bd-9faa15422293","meta":{"profile":["http://hl7.org/fhir/StructureDefinition/vitalsigns"]},"text":{"status":"generated","div":"<div xmlns=\"http://www.w3.org/1999/xhtml\"><a name=\"Observation_421025b5-34f6-4875-82bd-9faa15422293\"> </a><table class=\"hl7__ips\"><tr><td>Body Weight</td><td>72.5 kg</td></tr></table></div>"},"status":"final","category":[{"coding":[{"system":"http://terminology.hl7.org/CodeSystem/observation-category","code":"vital-signs","display":"Vital Signs"}]}],"code":{"coding":[{"system":"http://loinc.org","code":"29463-7","display":"Body Weight"}]},"subject":{"reference":"urn:uuid:416efeac-7ff6-439a-a898-ea493416a9bc","display":"Filip Berg"},"effectiveDateTime":"2024-08-19","valueQuantity":{"value":72.5,"unit":"kg","code":"kg"}}},{"fullUrl":"urn:uuid:cd58d661-8f44-4db2-8592-95f4a8e57e6b","resource":{"resourceType":"Observation","id":"cd58d661-8f44-4db2-8592-95f4a8e57e6b","meta":{"profile":["http://hl7.org/fhir/StructureDefinition/vitalsigns"]},"text":{"status":"generated","div":"<div xmlns=\"http://www.w3.org/1999/xhtml\"><a name=\"Observation_cd58d661-8f44-4db2-8592-95f4a8e57e6b\"> </a><table class=\"hl7__ips\"><tr><td>Body mass index (BMI) [Ratio]</td><td>24 kg/m2</td></tr></table></div>"},"status":"final","category":[{"coding":[{"system":"http://terminology.hl7.org/CodeSystem/observation-category","code":"vital-signs","display":"Vital Signs"}]}],"code":{"coding":[{"system":"http://loinc.org","code":"39156-5","display":"Body mass index (BMI) [Ratio]"}]},"subject":{"reference":"urn:uuid:416efeac-7ff6-439a-a898-ea493416a9bc","display":"Filip Berg"},"effectiveDateTime":"2024-08-19","valueQuantity":{"value":24,"unit":"kg/m2","code":"kg/m2"}}},{"fullUrl":"urn:uuid:26d40cb9-af16-4ceb-96cb-d521da382a3c","resource":{"resourceType":"Observation","id":"26d40cb9-af16-4ceb-96cb-d521da382a3c","meta":{"profile":["http://hl7.org/fhir/StructureDefinition/vitalsigns"]},"text":{"status":"generated","div":"<div xmlns=\"http://www.w3.org/1999/xhtml\"><a name=\"Observation_26d40cb9-af16-4ceb-96cb-d521da382a3c\"> </a><table class=\"hl7__ips\"><tr><td>Diastolic Blood Pressure</td><td>90 mm[Hg]</td></tr></table></div>"},"status":"final","category":[{"coding":[{"system":"http://terminology.hl7.org/CodeSystem/observation-category","code":"vital-signs","display":"Vital Signs"}]}],"code":{"coding":[{"system":"http://loinc.org","code":"8462-4","display":"Diastolic Blood Pressure"}]},"subject":{"reference":"urn:uuid:416efeac-7ff6-439a-a898-ea493416a9bc","display":"Filip Berg"},"effectiveDateTime":"2024-08-19","valueQuantity":{"value":90,"unit":"mm[Hg]","code":"mm[Hg]"}}},{"fullUrl":"urn:uuid:7b3968d2-2765-4fb2-9cb9-0c1f12c033c5","resource":{"resourceType":"Observation","id":"7b3968d2-2765-4fb2-9cb9-0c1f12c033c5","meta":{"profile":["http://hl7.org/fhir/StructureDefinition/vitalsigns"]},"text":{"status":"generated","div":"<div xmlns=\"http://www.w3.org/1999/xhtml\"><a name=\"Observation_7b3968d2-2765-4fb2-9cb9-0c1f12c033c5\"> </a><table class=\"hl7__ips\"><tr><td>Systolic Blood Pressure</td><td>111 mm[Hg]</td></tr></table></div>"},"status":"final","category":[{"coding":[{"system":"http://terminology.hl7.org/CodeSystem/observation-category","code":"vital-signs","display":"Vital Signs"}]}],"code":{"coding":[{"system":"http://loinc.org","code":"8480-6","display":"Systolic Blood Pressure"}]},"subject":{"reference":"urn:uuid:416efeac-7ff6-439a-a898-ea493416a9bc","display":"Filip Berg"},"effectiveDateTime":"2024-08-19","valueQuantity":{"value":111,"unit":"mm[Hg]","code":"mm[Hg]"}}},{"fullUrl":"urn:uuid:84e7ea1e-8db2-4153-99a4-24e477d55456","resource":{"resourceType":"Observation","id":"84e7ea1e-8db2-4153-99a4-24e477d55456","meta":{"profile":["http://hl7.org/fhir/StructureDefinition/vitalsigns"]},"text":{"status":"generated","div":"<div xmlns=\"http://www.w3.org/1999/xhtml\"><a name=\"Observation_84e7ea1e-8db2-4153-99a4-24e477d55456\"> </a><table class=\"hl7__ips\"><tr><td>Heart rate</td><td>78 /min</td></tr></table></div>"},"status":"final","category":[{"coding":[{"system":"http://terminology.hl7.org/CodeSystem/observation-category","code":"vital-signs","display":"Vital Signs"}]}],"code":{"coding":[{"system":"http://loinc.org","code":"8867-4","display":"Heart rate"}]},"subject":{"reference":"urn:uuid:416efeac-7ff6-439a-a898-ea493416a9bc","display":"Filip Berg"},"effectiveDateTime":"2024-08-19","valueQuantity":{"value":78,"unit":"/min","code":"/min"}}},{"fullUrl":"urn:uuid:a21407e2-81e2-4063-b7d1-88db450eda52","resource":{"resourceType":"Observation","id":"a21407e2-81e2-4063-b7d1-88db450eda52","meta":{"profile":["http://hl7.org/fhir/StructureDefinition/vitalsigns"]},"text":{"status":"generated","div":"<div xmlns=\"http://www.w3.org/1999/xhtml\"><a name=\"Observation_a21407e2-81e2-4063-b7d1-88db450eda52\"> </a><table class=\"hl7__ips\"><tr><td>Respiratory rate</td><td>14 /min</td></tr></table></div>"},"status":"final","category":[{"coding":[{"system":"http://terminology.hl7.org/CodeSystem/observation-category","code":"vital-signs","display":"Vital Signs"}]}],"code":{"coding":[{"system":"http://loinc.org","code":"9279-1","display":"Respiratory rate"}]},"subject":{"reference":"urn:uuid:416efeac-7ff6-439a-a898-ea493416a9bc","display":"Filip Berg"},"effectiveDateTime":"2024-08-19","valueQuantity":{"value":14,"unit":"/min","code":"/min"}}},{"fullUrl":"urn:uuid:cbcc8523-c0b5-4f4c-a35a-4067f9692692","resource":{"resourceType":"Observation","id":"cbcc8523-c0b5-4f4c-a35a-4067f9692692","meta":{"profile":["http://hl7.org/fhir/StructureDefinition/vitalsigns"]},"text":{"status":"generated","div":"<div xmlns=\"http://www.w3.org/1999/xhtml\"><a name=\"Observation_cbcc8523-c0b5-4f4c-a35a-4067f9692692\"> </a><table class=\"hl7__ips\"><tr><td>Body Height</td><td>173.7 cm</td></tr></table></div>"},"status":"final","category":[{"coding":[{"system":"http://terminology.hl7.org/CodeSystem/observation-category","code":"vital-signs","display":"Vital Signs"}]}],"code":{"coding":[{"system":"http://loinc.org","code":"8302-2","display":"Body Height"}]},"subject":{"reference":"urn:uuid:416efeac-7ff6-439a-a898-ea493416a9bc","display":"Filip Berg"},"effectiveDateTime":"2021-08-16","valueQuantity":{"value":173.7,"unit":"cm","code":"cm"}}},{"fullUrl":"urn:uuid:c7de5774-b12b-4a9c-b418-c575d00d629d","resource":{"resourceType":"Observation","id":"c7de5774-b12b-4a9c-b418-c575d00d629d","meta":{"profile":["http://hl7.org/fhir/StructureDefinition/vitalsigns"]},"text":{"status":"generated","div":"<div xmlns=\"http://www.w3.org/1999/xhtml\"><a name=\"Observation_c7de5774-b12b-4a9c-b418-c575d00d629d\"> </a><table class=\"hl7__ips\"><tr><td>Pain severity - 0-10 verbal numeric rating [Score] - Reported</td><td>3 {score}</td></tr></table></div>"},"status":"final","category":[{"coding":[{"system":"http://terminology.hl7.org/CodeSystem/observation-category","code":"vital-signs","display":"Vital Signs"}]}],"code":{"coding":[{"system":"http://loinc.org","code":"72514-3","display":"Pain severity - 0-10 verbal numeric rating [Score] - Reported"}]},"subject":{"reference":"urn:uuid:416efeac-7ff6-439a-a898-ea493416a9bc","display":"Filip Berg"},"effectiveDateTime":"2021-08-16","valueQuantity":{"value":3,"unit":"{score}","code":"{score}"}}},{"fullUrl":"urn:uuid:c9e68090-3f84-490a-9c63-075670193498","resource":{"resourceType":"Observation","id":"c9e68090-3f84-490a-9c63-075670193498","meta":{"profile":["http://hl7.org/fhir/StructureDefinition/vitalsigns"]},"text":{"status":"generated","div":"<div xmlns=\"http://www.w3.org/1999/xhtml\"><a name=\"Observation_c9e68090-3f84-490a-9c63-075670193498\"> </a><table class=\"hl7__ips\"><tr><td>Body Weight</td><td>68.7 kg</td></tr></table></div>"},"status":"final","category":[{"coding":[{"system":"http://terminology.hl7.org/CodeSystem/observation-category","code":"vital-signs","display":"Vital Signs"}]}],"code":{"coding":[{"system":"http://loinc.org","code":"29463-7","display":"Body Weight"}]},"subject":{"reference":"urn:uuid:416efeac-7ff6-439a-a898-ea493416a9bc","display":"Filip Berg"},"effectiveDateTime":"2021-08-16","valueQuantity":{"value":68.7,"unit":"kg","code":"kg"}}},{"fullUrl":"urn:uuid:ced8f8f2-e337-4da7-9a6b-c7c09e41d7bc","resource":{"resourceType":"Observation","id":"ced8f8f2-e337-4da7-9a6b-c7c09e41d7bc","meta":{"profile":["http://hl7.org/fhir/StructureDefinition/vitalsigns"]},"text":{"status":"generated","div":"<div xmlns=\"http://www.w3.org/1999/xhtml\"><a name=\"Observation_ced8f8f2-e337-4da7-9a6b-c7c09e41d7bc\"> </a><table class=\"hl7__ips\"><tr><td>Body mass index (BMI) [Ratio]</td><td>22.8 kg/m2</td></tr></table></div>"},"status":"final","category":[{"coding":[{"system":"http://terminology.hl7.org/CodeSystem/observation-category","code":"vital-signs","display":"Vital Signs"}]}],"code":{"coding":[{"system":"http://loinc.org","code":"39156-5","display":"Body mass index (BMI) [Ratio]"}]},"subject":{"reference":"urn:uuid:416efeac-7ff6-439a-a898-ea493416a9bc","display":"Filip Berg"},"effectiveDateTime":"2021-08-16","valueQuantity":{"value":22.8,"unit":"kg/m2","code":"kg/m2"}}},{"fullUrl":"urn:uuid:042e4f72-862c-45fc-909c-68065504d791","resource":{"resourceType":"Observation","id":"042e4f72-862c-45fc-909c-68065504d791","meta":{"profile":["http://hl7.org/fhir/StructureDefinition/vitalsigns"]},"text":{"status":"generated","div":"<div xmlns=\"http://www.w3.org/1999/xhtml\"><a name=\"Observation_042e4f72-862c-45fc-909c-68065504d791\"> </a><table class=\"hl7__ips\"><tr><td>Diastolic Blood Pressure</td><td>91 mm[Hg]</td></tr></table></div>"},"status":"final","category":[{"coding":[{"system":"http://terminology.hl7.org/CodeSystem/observation-category","code":"vital-signs","display":"Vital Signs"}]}],"code":{"coding":[{"system":"http://loinc.org","code":"8462-4","display":"Diastolic Blood Pressure"}]},"subject":{"reference":"urn:uuid:416efeac-7ff6-439a-a898-ea493416a9bc","display":"Filip Berg"},"effectiveDateTime":"2021-08-16","valueQuantity":{"value":91,"unit":"mm[Hg]","code":"mm[Hg]"}}},{"fullUrl":"urn:uuid:26124fcd-2425-4374-8e27-0e637086288a","resource":{"resourceType":"Observation","id":"26124fcd-2425-4374-8e27-0e637086288a","meta":{"profile":["http://hl7.org/fhir/StructureDefinition/vitalsigns"]},"text":{"status":"generated","div":"<div xmlns=\"http://www.w3.org/1999/xhtml\"><a name=\"Observation_26124fcd-2425-4374-8e27-0e637086288a\"> </a><table class=\"hl7__ips\"><tr><td>Systolic Blood Pressure</td><td>105 mm[Hg]</td></tr></table></div>"},"status":"final","category":[{"coding":[{"system":"http://terminology.hl7.org/CodeSystem/observation-category","code":"vital-signs","display":"Vital Signs"}]}],"code":{"coding":[{"system":"http://loinc.org","code":"8480-6","display":"Systolic Blood Pressure"}]},"subject":{"reference":"urn:uuid:416efeac-7ff6-439a-a898-ea493416a9bc","display":"Filip Berg"},"effectiveDateTime":"2021-08-16","valueQuantity":{"value":105,"unit":"mm[Hg]","code":"mm[Hg]"}}},{"fullUrl":"urn:uuid:0b2c92be-192c-427c-9353-1462a347d250","resource":{"resourceType":"Observation","id":"0b2c92be-192c-427c-9353-1462a347d250","meta":{"profile":["http://hl7.org/fhir/StructureDefinition/vitalsigns"]},"text":{"status":"generated","div":"<div xmlns=\"http://www.w3.org/1999/xhtml\"><a name=\"Observation_0b2c92be-192c-427c-9353-1462a347d250\"> </a><table class=\"hl7__ips\"><tr><td>Heart rate</td><td>66 /min</td></tr></table></div>"},"status":"final","category":[{"coding":[{"system":"http://terminology.hl7.org/CodeSystem/observation-category","code":"vital-signs","display":"Vital Signs"}]}],"code":{"coding":[{"system":"http://loinc.org","code":"8867-4","display":"Heart rate"}]},"subject":{"reference":"urn:uuid:416efeac-7ff6-439a-a898-ea493416a9bc","display":"Filip Berg"},"effectiveDateTime":"2021-08-16","valueQuantity":{"value":66,"unit":"/min","code":"/min"}}},{"fullUrl":"urn:uuid:8e9fc39c-e06d-4db5-99a1-5ff6f2ed9341","resource":{"resourceType":"Observation","id":"8e9fc39c-e06d-4db5-99a1-5ff6f2ed9341","meta":{"profile":["http://hl7.org/fhir/StructureDefinition/vitalsigns"]},"text":{"status":"generated","div":"<div xmlns=\"http://www.w3.org/1999/xhtml\"><a name=\"Observation_8e9fc39c-e06d-4db5-99a1-5ff6f2ed9341\"> </a><table class=\"hl7__ips\"><tr><td>Respiratory rate</td><td>12 /min</td></tr></table></div>"},"status":"final","category":[{"coding":[{"system":"http://terminology.hl7.org/CodeSystem/observation-category","code":"vital-signs","display":"Vital Signs"}]}],"code":{"coding":[{"system":"http://loinc.org","code":"9279-1","display":"Respiratory rate"}]},"subject":{"reference":"urn:uuid:416efeac-7ff6-439a-a898-ea493416a9bc","display":"Filip Berg"},"effectiveDateTime":"2021-08-16","valueQuantity":{"value":12,"unit":"/min","code":"/min"}}},{"fullUrl":"urn:uuid:91883554-34bc-44bc-8c51-43eca0d45be4","resource":{"resourceType":"Observation","id":"91883554-34bc-44bc-8c51-43eca0d45be4","meta":{"profile":["http://hl7.eu/fhir/laboratory/StructureDefinition/Observation-resultslab-eu-lab"]},"text":{"status":"generated","div":"<div xmlns=\"http://www.w3.org/1999/xhtml\"><a name=\"Observation_91883554-34bc-44bc-8c51-43eca0d45be4\"> </a><p class=\"res-header-id\"><b>Generated Narrative: Observation 91883554-34bc-44bc-8c51-43eca0d45be4</b></p><a name=\"91883554-34bc-44bc-8c51-43eca0d45be4\"> </a><a name=\"hc91883554-34bc-44bc-8c51-43eca0d45be4\"> </a><div style=\"display: inline-block; background-color: #d9e0e7; padding: 6px; margin: 4px; border: 1px solid #8da1b4; border-radius: 5px; line-height: 60%\"><p style=\"margin-bottom: 0px\"/><p style=\"margin-bottom: 0px\">Profile: <a href=\"http://hl7.eu/fhir/laboratory/0.1.1/StructureDefinition-Observation-resultslab-eu-lab.html\">Observation Results: laboratory</a></p></div><p><b>status</b>: Final</p><p><b>category</b>: <span title=\"Codes:{http://terminology.hl7.org/CodeSystem/observation-category laboratory}\">Laboratory</span></p><p><b>code</b>: <span title=\"Codes:{http://loinc.org 4548-4}\">Hemoglobin A1c/Hemoglobin.total in Blood</span></p><p><b>subject</b>: <a href=\"Bundle-Instance-Bundle-fd87b2bb-d948-4d45-b334-8053ef6dceb0.html#urn-uuid-416efeac-7ff6-439a-a898-ea493416a9bc\">Filip Berg Male, DoB: 2000-03-28 ( Jurisdictional health number)</a></p><p><b>effective</b>: 2024-08-19</p><p><b>performer</b>: The Central European Lab</p><p><b>value</b>: 6.6 %<span style=\"background: LightGoldenRodYellow\"> (Details: UCUM  code4548-4 = '4548-4')</span></p><p><b>interpretation</b>: <span title=\"Codes:{http://terminology.hl7.org/CodeSystem/v3-ObservationInterpretation H}\">High</span></p><h3>ReferenceRanges</h3><table class=\"grid\"><tr><td style=\"display: none\">-</td><td><b>Low</b></td><td><b>High</b></td></tr><tr><td style=\"display: none\">*</td><td>4 %<span style=\"background: LightGoldenRodYellow\"> (Details: UCUM  code% = '%')</span></td><td> </td></tr><tr><td style=\"display: none\">*</td><td> </td><td>6 %<span style=\"background: LightGoldenRodYellow\"> (Details: UCUM  code% = '%')</span></td></tr></table></div>"},"status":"final","category":[{"coding":[{"system":"http://terminology.hl7.org/CodeSystem/observation-category","code":"laboratory"}]}],"code":{"coding":[{"system":"http://loinc.org","code":"4548-4","display":"Hemoglobin A1c/Hemoglobin.total in Blood"}],"text":"Hemoglobin A1c/Hemoglobin.total in Blood"},"subject":{"reference":"urn:uuid:416efeac-7ff6-439a-a898-ea493416a9bc"},"effectiveDateTime":"2024-08-19","performer":[{"display":"The Central European Lab"}],"valueQuantity":{"value":6.6,"unit":"%","system":"http://unitsofmeasure.org","code":"4548-4"},"interpretation":[{"coding":[{"system":"http://terminology.hl7.org/CodeSystem/v3-ObservationInterpretation","code":"H","display":"High"}]}],"referenceRange":[{"low":{"value":4,"system":"http://unitsofmeasure.org","code":"%"}},{"high":{"value":6,"system":"http://unitsofmeasure.org","code":"%"}}]}},{"fullUrl":"urn:uuid:e0b369a5-aa46-4ade-9de0-ab0e3e4f63c8","resource":{"resourceType":"Observation","id":"e0b369a5-aa46-4ade-9de0-ab0e3e4f63c8","meta":{"profile":["http://hl7.eu/fhir/laboratory/StructureDefinition/Observation-resultslab-eu-lab"]},"text":{"status":"generated","div":"<div xmlns=\"http://www.w3.org/1999/xhtml\"><a name=\"Observation_e0b369a5-aa46-4ade-9de0-ab0e3e4f63c8\"> </a><p class=\"res-header-id\"><b>Generated Narrative: Observation e0b369a5-aa46-4ade-9de0-ab0e3e4f63c8</b></p><a name=\"e0b369a5-aa46-4ade-9de0-ab0e3e4f63c8\"> </a><a name=\"hce0b369a5-aa46-4ade-9de0-ab0e3e4f63c8\"> </a><div style=\"display: inline-block; background-color: #d9e0e7; padding: 6px; margin: 4px; border: 1px solid #8da1b4; border-radius: 5px; line-height: 60%\"><p style=\"margin-bottom: 0px\"/><p style=\"margin-bottom: 0px\">Profile: <a href=\"http://hl7.eu/fhir/laboratory/0.1.1/StructureDefinition-Observation-resultslab-eu-lab.html\">Observation Results: laboratory</a></p></div><p><b>status</b>: Final</p><p><b>category</b>: <span title=\"Codes:{http://terminology.hl7.org/CodeSystem/observation-category laboratory}\">Laboratory</span></p><p><b>code</b>: <span title=\"Codes:{http://loinc.org 2339-0}\">Glucose [Mass/volume] in Blood</span></p><p><b>subject</b>: <a href=\"Bundle-Instance-Bundle-fd87b2bb-d948-4d45-b334-8053ef6dceb0.html#urn-uuid-416efeac-7ff6-439a-a898-ea493416a9bc\">Filip Berg Male, DoB: 2000-03-28 ( Jurisdictional health number)</a></p><p><b>effective</b>: 2024-08-19</p><p><b>performer</b>: The Central European Lab</p><p><b>value</b>: 79.5 mg/dL<span style=\"background: LightGoldenRodYellow\"> (Details: UCUM  code2339-0 = '2339-0')</span></p><h3>ReferenceRanges</h3><table class=\"grid\"><tr><td style=\"display: none\">-</td><td><b>Low</b></td><td><b>High</b></td></tr><tr><td style=\"display: none\">*</td><td>70 mg/dL<span style=\"background: LightGoldenRodYellow\"> (Details: UCUM  codemg/dL = 'mg/dL')</span></td><td> </td></tr><tr><td style=\"display: none\">*</td><td> </td><td>100 mg/dL<span style=\"background: LightGoldenRodYellow\"> (Details: UCUM  codemg/dL = 'mg/dL')</span></td></tr></table></div>"},"status":"final","category":[{"coding":[{"system":"http://terminology.hl7.org/CodeSystem/observation-category","code":"laboratory"}]}],"code":{"coding":[{"system":"http://loinc.org","code":"2339-0","display":"Glucose [Mass/volume] in Blood"}],"text":"Glucose [Mass/volume] in Blood"},"subject":{"reference":"urn:uuid:416efeac-7ff6-439a-a898-ea493416a9bc"},"effectiveDateTime":"2024-08-19","performer":[{"display":"The Central European Lab"}],"valueQuantity":{"value":79.5,"unit":"mg/dL","system":"http://unitsofmeasure.org","code":"2339-0"},"referenceRange":[{"low":{"value":70,"system":"http://unitsofmeasure.org","code":"mg/dL"}},{"high":{"value":100,"system":"http://unitsofmeasure.org","code":"mg/dL"}}]}},{"fullUrl":"urn:uuid:413cf0d8-f57a-494b-9774-92ae82776e8e","resource":{"resourceType":"Observation","id":"413cf0d8-f57a-494b-9774-92ae82776e8e","meta":{"profile":["http://hl7.eu/fhir/laboratory/StructureDefinition/Observation-resultslab-eu-lab"]},"text":{"status":"generated","div":"<div xmlns=\"http://www.w3.org/1999/xhtml\"><a name=\"Observation_413cf0d8-f57a-494b-9774-92ae82776e8e\"> </a><p class=\"res-header-id\"><b>Generated Narrative: Observation 413cf0d8-f57a-494b-9774-92ae82776e8e</b></p><a name=\"413cf0d8-f57a-494b-9774-92ae82776e8e\"> </a><a name=\"hc413cf0d8-f57a-494b-9774-92ae82776e8e\"> </a><div style=\"display: inline-block; background-color: #d9e0e7; padding: 6px; margin: 4px; border: 1px solid #8da1b4; border-radius: 5px; line-height: 60%\"><p style=\"margin-bottom: 0px\"/><p style=\"margin-bottom: 0px\">Profile: <a href=\"http://hl7.eu/fhir/laboratory/0.1.1/StructureDefinition-Observation-resultslab-eu-lab.html\">Observation Results: laboratory</a></p></div><p><b>status</b>: Final</p><p><b>category</b>: <span title=\"Codes:{http://terminology.hl7.org/CodeSystem/observation-category laboratory}\">Laboratory</span></p><p><b>code</b>: <span title=\"Codes:{http://loinc.org 6299-2}\">Urea nitrogen [Mass/volume] in Blood</span></p><p><b>subject</b>: <a href=\"Bundle-Instance-Bundle-fd87b2bb-d948-4d45-b334-8053ef6dceb0.html#urn-uuid-416efeac-7ff6-439a-a898-ea493416a9bc\">Filip Berg Male, DoB: 2000-03-28 ( Jurisdictional health number)</a></p><p><b>effective</b>: 2024-08-19</p><p><b>performer</b>: The Central European Lab</p><p><b>value</b>: 14.4 mg/dL<span style=\"background: LightGoldenRodYellow\"> (Details: UCUM  code6299-2 = '6299-2')</span></p><h3>ReferenceRanges</h3><table class=\"grid\"><tr><td style=\"display: none\">-</td><td><b>Low</b></td><td><b>High</b></td></tr><tr><td style=\"display: none\">*</td><td>7 mg/dL<span style=\"background: LightGoldenRodYellow\"> (Details: UCUM  codemg/dL = 'mg/dL')</span></td><td> </td></tr><tr><td style=\"display: none\">*</td><td> </td><td>20 mg/dL<span style=\"background: LightGoldenRodYellow\"> (Details: UCUM  codemg/dL = 'mg/dL')</span></td></tr></table></div>"},"status":"final","category":[{"coding":[{"system":"http://terminology.hl7.org/CodeSystem/observation-category","code":"laboratory"}]}],"code":{"coding":[{"system":"http://loinc.org","code":"6299-2","display":"Urea nitrogen [Mass/volume] in Blood"}],"text":"Urea nitrogen [Mass/volume] in Blood"},"subject":{"reference":"urn:uuid:416efeac-7ff6-439a-a898-ea493416a9bc"},"effectiveDateTime":"2024-08-19","performer":[{"display":"The Central European Lab"}],"valueQuantity":{"value":14.4,"unit":"mg/dL","system":"http://unitsofmeasure.org","code":"6299-2"},"referenceRange":[{"low":{"value":7,"system":"http://unitsofmeasure.org","code":"mg/dL"}},{"high":{"value":20,"system":"http://unitsofmeasure.org","code":"mg/dL"}}]}},{"fullUrl":"urn:uuid:3badb1b1-a1d8-49af-80a9-6c4cf0968e48","resource":{"resourceType":"Observation","id":"3badb1b1-a1d8-49af-80a9-6c4cf0968e48","meta":{"profile":["http://hl7.eu/fhir/laboratory/StructureDefinition/Observation-resultslab-eu-lab"]},"text":{"status":"generated","div":"<div xmlns=\"http://www.w3.org/1999/xhtml\"><a name=\"Observation_3badb1b1-a1d8-49af-80a9-6c4cf0968e48\"> </a><p class=\"res-header-id\"><b>Generated Narrative: Observation 3badb1b1-a1d8-49af-80a9-6c4cf0968e48</b></p><a name=\"3badb1b1-a1d8-49af-80a9-6c4cf0968e48\"> </a><a name=\"hc3badb1b1-a1d8-49af-80a9-6c4cf0968e48\"> </a><div style=\"display: inline-block; background-color: #d9e0e7; padding: 6px; margin: 4px; border: 1px solid #8da1b4; border-radius: 5px; line-height: 60%\"><p style=\"margin-bottom: 0px\"/><p style=\"margin-bottom: 0px\">Profile: <a href=\"http://hl7.eu/fhir/laboratory/0.1.1/StructureDefinition-Observation-resultslab-eu-lab.html\">Observation Results: laboratory</a></p></div><p><b>status</b>: Final</p><p><b>category</b>: <span title=\"Codes:{http://terminology.hl7.org/CodeSystem/observation-category laboratory}\">Laboratory</span></p><p><b>code</b>: <span title=\"Codes:{http://loinc.org 38483-4}\">Creatinine [Mass/volume] in Blood</span></p><p><b>subject</b>: <a href=\"Bundle-Instance-Bundle-fd87b2bb-d948-4d45-b334-8053ef6dceb0.html#urn-uuid-416efeac-7ff6-439a-a898-ea493416a9bc\">Filip Berg Male, DoB: 2000-03-28 ( Jurisdictional health number)</a></p><p><b>effective</b>: 2024-08-19</p><p><b>performer</b>: The Central European Lab</p><p><b>value</b>: 1.5 mg/dL<span style=\"background: LightGoldenRodYellow\"> (Details: UCUM  code38483-4 = '38483-4')</span></p><p><b>interpretation</b>: <span title=\"Codes:{http://terminology.hl7.org/CodeSystem/v3-ObservationInterpretation H}\">High</span></p><h3>ReferenceRanges</h3><table class=\"grid\"><tr><td style=\"display: none\">-</td><td><b>Low</b></td><td><b>High</b></td></tr><tr><td style=\"display: none\">*</td><td>0.6 mg/dL<span style=\"background: LightGoldenRodYellow\"> (Details: UCUM  codemg/dL = 'mg/dL')</span></td><td> </td></tr><tr><td style=\"display: none\">*</td><td> </td><td>1.3 mg/dL<span style=\"background: LightGoldenRodYellow\"> (Details: UCUM  codemg/dL = 'mg/dL')</span></td></tr></table></div>"},"status":"final","category":[{"coding":[{"system":"http://terminology.hl7.org/CodeSystem/observation-category","code":"laboratory"}]}],"code":{"coding":[{"system":"http://loinc.org","code":"38483-4","display":"Creatinine [Mass/volume] in Blood"}],"text":"Creatinine [Mass/volume] in Blood"},"subject":{"reference":"urn:uuid:416efeac-7ff6-439a-a898-ea493416a9bc"},"effectiveDateTime":"2024-08-19","performer":[{"display":"The Central European Lab"}],"valueQuantity":{"value":1.5,"unit":"mg/dL","system":"http://unitsofmeasure.org","code":"38483-4"},"interpretation":[{"coding":[{"system":"http://terminology.hl7.org/CodeSystem/v3-ObservationInterpretation","code":"H","display":"High"}]}],"referenceRange":[{"low":{"value":0.6,"system":"http://unitsofmeasure.org","code":"mg/dL"}},{"high":{"value":1.3,"system":"http://unitsofmeasure.org","code":"mg/dL"}}]}},{"fullUrl":"urn:uuid:4eccab53-95e3-4656-9ea3-d41008ea70de","resource":{"resourceType":"Observation","id":"4eccab53-95e3-4656-9ea3-d41008ea70de","meta":{"profile":["http://hl7.eu/fhir/laboratory/StructureDefinition/Observation-resultslab-eu-lab"]},"text":{"status":"generated","div":"<div xmlns=\"http://www.w3.org/1999/xhtml\"><a name=\"Observation_4eccab53-95e3-4656-9ea3-d41008ea70de\"> </a><p class=\"res-header-id\"><b>Generated Narrative: Observation 4eccab53-95e3-4656-9ea3-d41008ea70de</b></p><a name=\"4eccab53-95e3-4656-9ea3-d41008ea70de\"> </a><a name=\"hc4eccab53-95e3-4656-9ea3-d41008ea70de\"> </a><div style=\"display: inline-block; background-color: #d9e0e7; padding: 6px; margin: 4px; border: 1px solid #8da1b4; border-radius: 5px; line-height: 60%\"><p style=\"margin-bottom: 0px\"/><p style=\"margin-bottom: 0px\">Profile: <a href=\"http://hl7.eu/fhir/laboratory/0.1.1/StructureDefinition-Observation-resultslab-eu-lab.html\">Observation Results: laboratory</a></p></div><p><b>status</b>: Final</p><p><b>category</b>: <span title=\"Codes:{http://terminology.hl7.org/CodeSystem/observation-category laboratory}\">Laboratory</span></p><p><b>code</b>: <span title=\"Codes:{http://loinc.org 49765-1}\">Calcium [Mass/volume] in Blood</span></p><p><b>subject</b>: <a href=\"Bundle-Instance-Bundle-fd87b2bb-d948-4d45-b334-8053ef6dceb0.html#urn-uuid-416efeac-7ff6-439a-a898-ea493416a9bc\">Filip Berg Male, DoB: 2000-03-28 ( Jurisdictional health number)</a></p><p><b>effective</b>: 2024-08-19</p><p><b>performer</b>: The Central European Lab</p><p><b>value</b>: 8.5 mg/dL<span style=\"background: LightGoldenRodYellow\"> (Details: UCUM  code49765-1 = '49765-1')</span></p><h3>ReferenceRanges</h3><table class=\"grid\"><tr><td style=\"display: none\">-</td><td><b>Low</b></td><td><b>High</b></td></tr><tr><td style=\"display: none\">*</td><td>8.5 mg/dL<span style=\"background: LightGoldenRodYellow\"> (Details: UCUM  codemg/dL = 'mg/dL')</span></td><td> </td></tr><tr><td style=\"display: none\">*</td><td> </td><td>10.5 mg/dL<span style=\"background: LightGoldenRodYellow\"> (Details: UCUM  codemg/dL = 'mg/dL')</span></td></tr></table></div>"},"status":"final","category":[{"coding":[{"system":"http://terminology.hl7.org/CodeSystem/observation-category","code":"laboratory"}]}],"code":{"coding":[{"system":"http://loinc.org","code":"49765-1","display":"Calcium [Mass/volume] in Blood"}],"text":"Calcium [Mass/volume] in Blood"},"subject":{"reference":"urn:uuid:416efeac-7ff6-439a-a898-ea493416a9bc"},"effectiveDateTime":"2024-08-19","performer":[{"display":"The Central European Lab"}],"valueQuantity":{"value":8.5,"unit":"mg/dL","system":"http://unitsofmeasure.org","code":"49765-1"},"referenceRange":[{"low":{"value":8.5,"system":"http://unitsofmeasure.org","code":"mg/dL"}},{"high":{"value":10.5,"system":"http://unitsofmeasure.org","code":"mg/dL"}}]}},{"fullUrl":"urn:uuid:63f96da2-5b5a-4ff4-9c83-0de1ee13a01e","resource":{"resourceType":"Observation","id":"63f96da2-5b5a-4ff4-9c83-0de1ee13a01e","meta":{"profile":["http://hl7.eu/fhir/laboratory/StructureDefinition/Observation-resultslab-eu-lab"]},"text":{"status":"generated","div":"<div xmlns=\"http://www.w3.org/1999/xhtml\"><a name=\"Observation_63f96da2-5b5a-4ff4-9c83-0de1ee13a01e\"> </a><p class=\"res-header-id\"><b>Generated Narrative: Observation 63f96da2-5b5a-4ff4-9c83-0de1ee13a01e</b></p><a name=\"63f96da2-5b5a-4ff4-9c83-0de1ee13a01e\"> </a><a name=\"hc63f96da2-5b5a-4ff4-9c83-0de1ee13a01e\"> </a><div style=\"display: inline-block; background-color: #d9e0e7; padding: 6px; margin: 4px; border: 1px solid #8da1b4; border-radius: 5px; line-height: 60%\"><p style=\"margin-bottom: 0px\"/><p style=\"margin-bottom: 0px\">Profile: <a href=\"http://hl7.eu/fhir/laboratory/0.1.1/StructureDefinition-Observation-resultslab-eu-lab.html\">Observation Results: laboratory</a></p></div><p><b>status</b>: Final</p><p><b>category</b>: <span title=\"Codes:{http://terminology.hl7.org/CodeSystem/observation-category laboratory}\">Laboratory</span></p><p><b>code</b>: <span title=\"Codes:{http://loinc.org 2947-0}\">Sodium [Moles/volume] in Blood</span></p><p><b>subject</b>: <a href=\"Bundle-Instance-Bundle-fd87b2bb-d948-4d45-b334-8053ef6dceb0.html#urn-uuid-416efeac-7ff6-439a-a898-ea493416a9bc\">Filip Berg Male, DoB: 2000-03-28 ( Jurisdictional health number)</a></p><p><b>effective</b>: 2024-08-19</p><p><b>performer</b>: The Central European Lab</p><p><b>value</b>: 142.5 mmol/L<span style=\"background: LightGoldenRodYellow\"> (Details: UCUM  code2947-0 = '2947-0')</span></p><h3>ReferenceRanges</h3><table class=\"grid\"><tr><td style=\"display: none\">-</td><td><b>Low</b></td><td><b>High</b></td></tr><tr><td style=\"display: none\">*</td><td>135 mmol/L<span style=\"background: LightGoldenRodYellow\"> (Details: UCUM  codemmol/L = 'mmol/L')</span></td><td> </td></tr><tr><td style=\"display: none\">*</td><td> </td><td>145 mmol/L<span style=\"background: LightGoldenRodYellow\"> (Details: UCUM  codemmol/L = 'mmol/L')</span></td></tr></table></div>"},"status":"final","category":[{"coding":[{"system":"http://terminology.hl7.org/CodeSystem/observation-category","code":"laboratory"}]}],"code":{"coding":[{"system":"http://loinc.org","code":"2947-0","display":"Sodium [Moles/volume] in Blood"}],"text":"Sodium [Moles/volume] in Blood"},"subject":{"reference":"urn:uuid:416efeac-7ff6-439a-a898-ea493416a9bc"},"effectiveDateTime":"2024-08-19","performer":[{"display":"The Central European Lab"}],"valueQuantity":{"value":142.5,"unit":"mmol/L","system":"http://unitsofmeasure.org","code":"2947-0"},"referenceRange":[{"low":{"value":135,"system":"http://unitsofmeasure.org","code":"mmol/L"}},{"high":{"value":145,"system":"http://unitsofmeasure.org","code":"mmol/L"}}]}},{"fullUrl":"urn:uuid:10ea2b2e-b62c-4fed-84cc-fd0d0d451657","resource":{"resourceType":"Observation","id":"10ea2b2e-b62c-4fed-84cc-fd0d0d451657","meta":{"profile":["http://hl7.eu/fhir/laboratory/StructureDefinition/Observation-resultslab-eu-lab"]},"text":{"status":"generated","div":"<div xmlns=\"http://www.w3.org/1999/xhtml\"><a name=\"Observation_10ea2b2e-b62c-4fed-84cc-fd0d0d451657\"> </a><p class=\"res-header-id\"><b>Generated Narrative: Observation 10ea2b2e-b62c-4fed-84cc-fd0d0d451657</b></p><a name=\"10ea2b2e-b62c-4fed-84cc-fd0d0d451657\"> </a><a name=\"hc10ea2b2e-b62c-4fed-84cc-fd0d0d451657\"> </a><div style=\"display: inline-block; background-color: #d9e0e7; padding: 6px; margin: 4px; border: 1px solid #8da1b4; border-radius: 5px; line-height: 60%\"><p style=\"margin-bottom: 0px\"/><p style=\"margin-bottom: 0px\">Profile: <a href=\"http://hl7.eu/fhir/laboratory/0.1.1/StructureDefinition-Observation-resultslab-eu-lab.html\">Observation Results: laboratory</a></p></div><p><b>status</b>: Final</p><p><b>category</b>: <span title=\"Codes:{http://terminology.hl7.org/CodeSystem/observation-category laboratory}\">Laboratory</span></p><p><b>code</b>: <span title=\"Codes:{http://loinc.org 6298-4}\">Potassium [Moles/volume] in Blood</span></p><p><b>subject</b>: <a href=\"Bundle-Instance-Bundle-fd87b2bb-d948-4d45-b334-8053ef6dceb0.html#urn-uuid-416efeac-7ff6-439a-a898-ea493416a9bc\">Filip Berg Male, DoB: 2000-03-28 ( Jurisdictional health number)</a></p><p><b>effective</b>: 2024-08-19</p><p><b>performer</b>: The Central European Lab</p><p><b>value</b>: 4.2 mmol/L<span style=\"background: LightGoldenRodYellow\"> (Details: UCUM  code6298-4 = '6298-4')</span></p><h3>ReferenceRanges</h3><table class=\"grid\"><tr><td style=\"display: none\">-</td><td><b>Low</b></td><td><b>High</b></td></tr><tr><td style=\"display: none\">*</td><td>3.5 mmol/L<span style=\"background: LightGoldenRodYellow\"> (Details: UCUM  codemmol/L = 'mmol/L')</span></td><td> </td></tr><tr><td style=\"display: none\">*</td><td> </td><td>5 mmol/L<span style=\"background: LightGoldenRodYellow\"> (Details: UCUM  codemmol/L = 'mmol/L')</span></td></tr></table></div>"},"status":"final","category":[{"coding":[{"system":"http://terminology.hl7.org/CodeSystem/observation-category","code":"laboratory"}]}],"code":{"coding":[{"system":"http://loinc.org","code":"6298-4","display":"Potassium [Moles/volume] in Blood"}],"text":"Potassium [Moles/volume] in Blood"},"subject":{"reference":"urn:uuid:416efeac-7ff6-439a-a898-ea493416a9bc"},"effectiveDateTime":"2024-08-19","performer":[{"display":"The Central European Lab"}],"valueQuantity":{"value":4.2,"unit":"mmol/L","system":"http://unitsofmeasure.org","code":"6298-4"},"referenceRange":[{"low":{"value":3.5,"system":"http://unitsofmeasure.org","code":"mmol/L"}},{"high":{"value":5,"system":"http://unitsofmeasure.org","code":"mmol/L"}}]}},{"fullUrl":"urn:uuid:ba8a5508-671a-496d-9f29-01ccaf7e1231","resource":{"resourceType":"Observation","id":"ba8a5508-671a-496d-9f29-01ccaf7e1231","meta":{"profile":["http://hl7.eu/fhir/laboratory/StructureDefinition/Observation-resultslab-eu-lab"]},"text":{"status":"generated","div":"<div xmlns=\"http://www.w3.org/1999/xhtml\"><a name=\"Observation_ba8a5508-671a-496d-9f29-01ccaf7e1231\"> </a><p class=\"res-header-id\"><b>Generated Narrative: Observation ba8a5508-671a-496d-9f29-01ccaf7e1231</b></p><a name=\"ba8a5508-671a-496d-9f29-01ccaf7e1231\"> </a><a name=\"hcba8a5508-671a-496d-9f29-01ccaf7e1231\"> </a><div style=\"display: inline-block; background-color: #d9e0e7; padding: 6px; margin: 4px; border: 1px solid #8da1b4; border-radius: 5px; line-height: 60%\"><p style=\"margin-bottom: 0px\"/><p style=\"margin-bottom: 0px\">Profile: <a href=\"http://hl7.eu/fhir/laboratory/0.1.1/StructureDefinition-Observation-resultslab-eu-lab.html\">Observation Results: laboratory</a></p></div><p><b>status</b>: Final</p><p><b>category</b>: <span title=\"Codes:{http://terminology.hl7.org/CodeSystem/observation-category laboratory}\">Laboratory</span></p><p><b>code</b>: <span title=\"Codes:{http://loinc.org 2069-3}\">Chloride [Moles/volume] in Blood</span></p><p><b>subject</b>: <a href=\"Bundle-Instance-Bundle-fd87b2bb-d948-4d45-b334-8053ef6dceb0.html#urn-uuid-416efeac-7ff6-439a-a898-ea493416a9bc\">Filip Berg Male, DoB: 2000-03-28 ( Jurisdictional health number)</a></p><p><b>effective</b>: 2024-08-19</p><p><b>performer</b>: The Central European Lab</p><p><b>value</b>: 110.6 mmol/L<span style=\"background: LightGoldenRodYellow\"> (Details: UCUM  code2069-3 = '2069-3')</span></p><p><b>interpretation</b>: <span title=\"Codes:{http://terminology.hl7.org/CodeSystem/v3-ObservationInterpretation H}\">High</span></p><h3>ReferenceRanges</h3><table class=\"grid\"><tr><td style=\"display: none\">-</td><td><b>Low</b></td><td><b>High</b></td></tr><tr><td style=\"display: none\">*</td><td>98 mmol/L<span style=\"background: LightGoldenRodYellow\"> (Details: UCUM  codemmol/L = 'mmol/L')</span></td><td> </td></tr><tr><td style=\"display: none\">*</td><td> </td><td>108 mmol/L<span style=\"background: LightGoldenRodYellow\"> (Details: UCUM  codemmol/L = 'mmol/L')</span></td></tr></table></div>"},"status":"final","category":[{"coding":[{"system":"http://terminology.hl7.org/CodeSystem/observation-category","code":"laboratory"}]}],"code":{"coding":[{"system":"http://loinc.org","code":"2069-3","display":"Chloride [Moles/volume] in Blood"}],"text":"Chloride [Moles/volume] in Blood"},"subject":{"reference":"urn:uuid:416efeac-7ff6-439a-a898-ea493416a9bc"},"effectiveDateTime":"2024-08-19","performer":[{"display":"The Central European Lab"}],"valueQuantity":{"value":110.6,"unit":"mmol/L","system":"http://unitsofmeasure.org","code":"2069-3"},"interpretation":[{"coding":[{"system":"http://terminology.hl7.org/CodeSystem/v3-ObservationInterpretation","code":"H","display":"High"}]}],"referenceRange":[{"low":{"value":98,"system":"http://unitsofmeasure.org","code":"mmol/L"}},{"high":{"value":108,"system":"http://unitsofmeasure.org","code":"mmol/L"}}]}},{"fullUrl":"urn:uuid:ce2a9298-aa05-4fb3-9454-d9c668ec92f1","resource":{"resourceType":"Observation","id":"ce2a9298-aa05-4fb3-9454-d9c668ec92f1","meta":{"profile":["http://hl7.eu/fhir/laboratory/StructureDefinition/Observation-resultslab-eu-lab"]},"text":{"status":"generated","div":"<div xmlns=\"http://www.w3.org/1999/xhtml\"><a name=\"Observation_ce2a9298-aa05-4fb3-9454-d9c668ec92f1\"> </a><p class=\"res-header-id\"><b>Generated Narrative: Observation ce2a9298-aa05-4fb3-9454-d9c668ec92f1</b></p><a name=\"ce2a9298-aa05-4fb3-9454-d9c668ec92f1\"> </a><a name=\"hcce2a9298-aa05-4fb3-9454-d9c668ec92f1\"> </a><div style=\"display: inline-block; background-color: #d9e0e7; padding: 6px; margin: 4px; border: 1px solid #8da1b4; border-radius: 5px; line-height: 60%\"><p style=\"margin-bottom: 0px\"/><p style=\"margin-bottom: 0px\">Profile: <a href=\"http://hl7.eu/fhir/laboratory/0.1.1/StructureDefinition-Observation-resultslab-eu-lab.html\">Observation Results: laboratory</a></p></div><p><b>status</b>: Final</p><p><b>category</b>: <span title=\"Codes:{http://terminology.hl7.org/CodeSystem/observation-category laboratory}\">Laboratory</span></p><p><b>code</b>: <span title=\"Codes:{http://loinc.org 20565-8}\">Carbon dioxide, total [Moles/volume] in Blood</span></p><p><b>subject</b>: <a href=\"Bundle-Instance-Bundle-fd87b2bb-d948-4d45-b334-8053ef6dceb0.html#urn-uuid-416efeac-7ff6-439a-a898-ea493416a9bc\">Filip Berg Male, DoB: 2000-03-28 ( Jurisdictional health number)</a></p><p><b>effective</b>: 2024-08-19</p><p><b>performer</b>: The Central European Lab</p><p><b>value</b>: 26.1 mmol/L<span style=\"background: LightGoldenRodYellow\"> (Details: UCUM  code20565-8 = '20565-8')</span></p><h3>ReferenceRanges</h3><table class=\"grid\"><tr><td style=\"display: none\">-</td><td><b>Low</b></td><td><b>High</b></td></tr><tr><td style=\"display: none\">*</td><td>24 mmol/L<span style=\"background: LightGoldenRodYellow\"> (Details: UCUM  codemmol/L = 'mmol/L')</span></td><td> </td></tr><tr><td style=\"display: none\">*</td><td> </td><td>29 mmol/L<span style=\"background: LightGoldenRodYellow\"> (Details: UCUM  codemmol/L = 'mmol/L')</span></td></tr></table></div>"},"status":"final","category":[{"coding":[{"system":"http://terminology.hl7.org/CodeSystem/observation-category","code":"laboratory"}]}],"code":{"coding":[{"system":"http://loinc.org","code":"20565-8","display":"Carbon dioxide, total [Moles/volume] in Blood"}],"text":"Carbon dioxide, total [Moles/volume] in Blood"},"subject":{"reference":"urn:uuid:416efeac-7ff6-439a-a898-ea493416a9bc"},"effectiveDateTime":"2024-08-19","performer":[{"display":"The Central European Lab"}],"valueQuantity":{"value":26.1,"unit":"mmol/L","system":"http://unitsofmeasure.org","code":"20565-8"},"referenceRange":[{"low":{"value":24,"system":"http://unitsofmeasure.org","code":"mmol/L"}},{"high":{"value":29,"system":"http://unitsofmeasure.org","code":"mmol/L"}}]}},{"fullUrl":"urn:uuid:7f7f1408-e280-411b-b357-e8c632fe7635","resource":{"resourceType":"Observation","id":"7f7f1408-e280-411b-b357-e8c632fe7635","meta":{"profile":["http://hl7.eu/fhir/laboratory/StructureDefinition/Observation-resultslab-eu-lab"]},"text":{"status":"generated","div":"<div xmlns=\"http://www.w3.org/1999/xhtml\"><a name=\"Observation_7f7f1408-e280-411b-b357-e8c632fe7635\"> </a><p class=\"res-header-id\"><b>Generated Narrative: Observation 7f7f1408-e280-411b-b357-e8c632fe7635</b></p><a name=\"7f7f1408-e280-411b-b357-e8c632fe7635\"> </a><a name=\"hc7f7f1408-e280-411b-b357-e8c632fe7635\"> </a><div style=\"display: inline-block; background-color: #d9e0e7; padding: 6px; margin: 4px; border: 1px solid #8da1b4; border-radius: 5px; line-height: 60%\"><p style=\"margin-bottom: 0px\"/><p style=\"margin-bottom: 0px\">Profile: <a href=\"http://hl7.eu/fhir/laboratory/0.1.1/StructureDefinition-Observation-resultslab-eu-lab.html\">Observation Results: laboratory</a></p></div><p><b>status</b>: Final</p><p><b>category</b>: <span title=\"Codes:{http://terminology.hl7.org/CodeSystem/observation-category laboratory}\">Laboratory</span></p><p><b>code</b>: <span title=\"Codes:{http://loinc.org 2093-3}\">Cholesterol [Mass/volume] in Serum or Plasma</span></p><p><b>subject</b>: <a href=\"Bundle-Instance-Bundle-fd87b2bb-d948-4d45-b334-8053ef6dceb0.html#urn-uuid-416efeac-7ff6-439a-a898-ea493416a9bc\">Filip Berg Male, DoB: 2000-03-28 ( Jurisdictional health number)</a></p><p><b>effective</b>: 2024-08-19</p><p><b>performer</b>: The Central European Lab</p><p><b>value</b>: 193.3 mg/dL<span style=\"background: LightGoldenRodYellow\"> (Details: UCUM  code2093-3 = '2093-3')</span></p><h3>ReferenceRanges</h3><table class=\"grid\"><tr><td style=\"display: none\">-</td><td><b>Low</b></td><td><b>High</b></td></tr><tr><td style=\"display: none\">*</td><td>125 mg/dL<span style=\"background: LightGoldenRodYellow\"> (Details: UCUM  codemg/dL = 'mg/dL')</span></td><td> </td></tr><tr><td style=\"display: none\">*</td><td> </td><td>200 mg/dL<span style=\"background: LightGoldenRodYellow\"> (Details: UCUM  codemg/dL = 'mg/dL')</span></td></tr></table></div>"},"status":"final","category":[{"coding":[{"system":"http://terminology.hl7.org/CodeSystem/observation-category","code":"laboratory"}]}],"code":{"coding":[{"system":"http://loinc.org","code":"2093-3","display":"Cholesterol [Mass/volume] in Serum or Plasma"}],"text":"Cholesterol [Mass/volume] in Serum or Plasma"},"subject":{"reference":"urn:uuid:416efeac-7ff6-439a-a898-ea493416a9bc"},"effectiveDateTime":"2024-08-19","performer":[{"display":"The Central European Lab"}],"valueQuantity":{"value":193.3,"unit":"mg/dL","system":"http://unitsofmeasure.org","code":"2093-3"},"referenceRange":[{"low":{"value":125,"system":"http://unitsofmeasure.org","code":"mg/dL"}},{"high":{"value":200,"system":"http://unitsofmeasure.org","code":"mg/dL"}}]}},{"fullUrl":"urn:uuid:af2ef9be-64bf-4908-963f-b8e491b57fd0","resource":{"resourceType":"Observation","id":"af2ef9be-64bf-4908-963f-b8e491b57fd0","meta":{"profile":["http://hl7.eu/fhir/laboratory/StructureDefinition/Observation-resultslab-eu-lab"]},"text":{"status":"generated","div":"<div xmlns=\"http://www.w3.org/1999/xhtml\"><a name=\"Observation_af2ef9be-64bf-4908-963f-b8e491b57fd0\"> </a><p class=\"res-header-id\"><b>Generated Narrative: Observation af2ef9be-64bf-4908-963f-b8e491b57fd0</b></p><a name=\"af2ef9be-64bf-4908-963f-b8e491b57fd0\"> </a><a name=\"hcaf2ef9be-64bf-4908-963f-b8e491b57fd0\"> </a><div style=\"display: inline-block; background-color: #d9e0e7; padding: 6px; margin: 4px; border: 1px solid #8da1b4; border-radius: 5px; line-height: 60%\"><p style=\"margin-bottom: 0px\"/><p style=\"margin-bottom: 0px\">Profile: <a href=\"http://hl7.eu/fhir/laboratory/0.1.1/StructureDefinition-Observation-resultslab-eu-lab.html\">Observation Results: laboratory</a></p></div><p><b>status</b>: Final</p><p><b>category</b>: <span title=\"Codes:{http://terminology.hl7.org/CodeSystem/observation-category laboratory}\">Laboratory</span></p><p><b>code</b>: <span title=\"Codes:{http://loinc.org 2571-8}\">Triglyceride [Mass/volume] in Serum or Plasma</span></p><p><b>subject</b>: <a href=\"Bundle-Instance-Bundle-fd87b2bb-d948-4d45-b334-8053ef6dceb0.html#urn-uuid-416efeac-7ff6-439a-a898-ea493416a9bc\">Filip Berg Male, DoB: 2000-03-28 ( Jurisdictional health number)</a></p><p><b>effective</b>: 2024-08-19</p><p><b>performer</b>: The Central European Lab</p><p><b>value</b>: 122.7 mg/dL<span style=\"background: LightGoldenRodYellow\"> (Details: UCUM  code2571-8 = '2571-8')</span></p><h3>ReferenceRanges</h3><table class=\"grid\"><tr><td style=\"display: none\">-</td><td><b>Low</b></td><td><b>High</b></td></tr><tr><td style=\"display: none\">*</td><td>0 mg/dL<span style=\"background: LightGoldenRodYellow\"> (Details: UCUM  codemg/dL = 'mg/dL')</span></td><td> </td></tr><tr><td style=\"display: none\">*</td><td> </td><td>150 mg/dL<span style=\"background: LightGoldenRodYellow\"> (Details: UCUM  codemg/dL = 'mg/dL')</span></td></tr></table></div>"},"status":"final","category":[{"coding":[{"system":"http://terminology.hl7.org/CodeSystem/observation-category","code":"laboratory"}]}],"code":{"coding":[{"system":"http://loinc.org","code":"2571-8","display":"Triglyceride [Mass/volume] in Serum or Plasma"}],"text":"Triglyceride [Mass/volume] in Serum or Plasma"},"subject":{"reference":"urn:uuid:416efeac-7ff6-439a-a898-ea493416a9bc"},"effectiveDateTime":"2024-08-19","performer":[{"display":"The Central European Lab"}],"valueQuantity":{"value":122.7,"unit":"mg/dL","system":"http://unitsofmeasure.org","code":"2571-8"},"referenceRange":[{"low":{"value":0,"system":"http://unitsofmeasure.org","code":"mg/dL"}},{"high":{"value":150,"system":"http://unitsofmeasure.org","code":"mg/dL"}}]}},{"fullUrl":"urn:uuid:22b7f0e4-f938-4867-9bb4-4f126920743c","resource":{"resourceType":"Observation","id":"22b7f0e4-f938-4867-9bb4-4f126920743c","meta":{"profile":["http://hl7.eu/fhir/laboratory/StructureDefinition/Observation-resultslab-eu-lab"]},"text":{"status":"generated","div":"<div xmlns=\"http://www.w3.org/1999/xhtml\"><a name=\"Observation_22b7f0e4-f938-4867-9bb4-4f126920743c\"> </a><p class=\"res-header-id\"><b>Generated Narrative: Observation 22b7f0e4-f938-4867-9bb4-4f126920743c</b></p><a name=\"22b7f0e4-f938-4867-9bb4-4f126920743c\"> </a><a name=\"hc22b7f0e4-f938-4867-9bb4-4f126920743c\"> </a><div style=\"display: inline-block; background-color: #d9e0e7; padding: 6px; margin: 4px; border: 1px solid #8da1b4; border-radius: 5px; line-height: 60%\"><p style=\"margin-bottom: 0px\"/><p style=\"margin-bottom: 0px\">Profile: <a href=\"http://hl7.eu/fhir/laboratory/0.1.1/StructureDefinition-Observation-resultslab-eu-lab.html\">Observation Results: laboratory</a></p></div><p><b>status</b>: Final</p><p><b>category</b>: <span title=\"Codes:{http://terminology.hl7.org/CodeSystem/observation-category laboratory}\">Laboratory</span></p><p><b>code</b>: <span title=\"Codes:{http://loinc.org 18262-6}\">Cholesterol in LDL [Mass/volume] in Serum or Plasma by Direct assay</span></p><p><b>subject</b>: <a href=\"Bundle-Instance-Bundle-fd87b2bb-d948-4d45-b334-8053ef6dceb0.html#urn-uuid-416efeac-7ff6-439a-a898-ea493416a9bc\">Filip Berg Male, DoB: 2000-03-28 ( Jurisdictional health number)</a></p><p><b>effective</b>: 2024-08-19</p><p><b>performer</b>: The Central European Lab</p><p><b>value</b>: 115.5 mg/dL<span style=\"background: LightGoldenRodYellow\"> (Details: UCUM  code18262-6 = '18262-6')</span></p><h3>ReferenceRanges</h3><table class=\"grid\"><tr><td style=\"display: none\">-</td><td><b>Low</b></td><td><b>High</b></td></tr><tr><td style=\"display: none\">*</td><td>0 mg/dL<span style=\"background: LightGoldenRodYellow\"> (Details: UCUM  codemg/dL = 'mg/dL')</span></td><td> </td></tr><tr><td style=\"display: none\">*</td><td> </td><td>130 mg/dL<span style=\"background: LightGoldenRodYellow\"> (Details: UCUM  codemg/dL = 'mg/dL')</span></td></tr></table></div>"},"status":"final","category":[{"coding":[{"system":"http://terminology.hl7.org/CodeSystem/observation-category","code":"laboratory"}]}],"code":{"coding":[{"system":"http://loinc.org","code":"18262-6","display":"Cholesterol in LDL [Mass/volume] in Serum or Plasma by Direct assay"}],"text":"Cholesterol in LDL [Mass/volume] in Serum or Plasma by Direct assay"},"subject":{"reference":"urn:uuid:416efeac-7ff6-439a-a898-ea493416a9bc"},"effectiveDateTime":"2024-08-19","performer":[{"display":"The Central European Lab"}],"valueQuantity":{"value":115.5,"unit":"mg/dL","system":"http://unitsofmeasure.org","code":"18262-6"},"referenceRange":[{"low":{"value":0,"system":"http://unitsofmeasure.org","code":"mg/dL"}},{"high":{"value":130,"system":"http://unitsofmeasure.org","code":"mg/dL"}}]}},{"fullUrl":"urn:uuid:13cd010c-7ff6-4ce7-ba38-3584729486a1","resource":{"resourceType":"Observation","id":"13cd010c-7ff6-4ce7-ba38-3584729486a1","meta":{"profile":["http://hl7.eu/fhir/laboratory/StructureDefinition/Observation-resultslab-eu-lab"]},"text":{"status":"generated","div":"<div xmlns=\"http://www.w3.org/1999/xhtml\"><a name=\"Observation_13cd010c-7ff6-4ce7-ba38-3584729486a1\"> </a><p class=\"res-header-id\"><b>Generated Narrative: Observation 13cd010c-7ff6-4ce7-ba38-3584729486a1</b></p><a name=\"13cd010c-7ff6-4ce7-ba38-3584729486a1\"> </a><a name=\"hc13cd010c-7ff6-4ce7-ba38-3584729486a1\"> </a><div style=\"display: inline-block; background-color: #d9e0e7; padding: 6px; margin: 4px; border: 1px solid #8da1b4; border-radius: 5px; line-height: 60%\"><p style=\"margin-bottom: 0px\"/><p style=\"margin-bottom: 0px\">Profile: <a href=\"http://hl7.eu/fhir/laboratory/0.1.1/StructureDefinition-Observation-resultslab-eu-lab.html\">Observation Results: laboratory</a></p></div><p><b>status</b>: Final</p><p><b>category</b>: <span title=\"Codes:{http://terminology.hl7.org/CodeSystem/observation-category laboratory}\">Laboratory</span></p><p><b>code</b>: <span title=\"Codes:{http://loinc.org 2085-9}\">Cholesterol in HDL [Mass/volume] in Serum or Plasma</span></p><p><b>subject</b>: <a href=\"Bundle-Instance-Bundle-fd87b2bb-d948-4d45-b334-8053ef6dceb0.html#urn-uuid-416efeac-7ff6-439a-a898-ea493416a9bc\">Filip Berg Male, DoB: 2000-03-28 ( Jurisdictional health number)</a></p><p><b>effective</b>: 2024-08-19</p><p><b>performer</b>: The Central European Lab</p><p><b>value</b>: 53.2 mg/dL<span style=\"background: LightGoldenRodYellow\"> (Details: UCUM  code2085-9 = '2085-9')</span></p><h3>ReferenceRanges</h3><table class=\"grid\"><tr><td style=\"display: none\">-</td><td><b>Low</b></td><td><b>High</b></td></tr><tr><td style=\"display: none\">*</td><td>40 mg/dL<span style=\"background: LightGoldenRodYellow\"> (Details: UCUM  codemg/dL = 'mg/dL')</span></td><td> </td></tr><tr><td style=\"display: none\">*</td><td> </td><td>60 mg/dL<span style=\"background: LightGoldenRodYellow\"> (Details: UCUM  codemg/dL = 'mg/dL')</span></td></tr></table></div>"},"status":"final","category":[{"coding":[{"system":"http://terminology.hl7.org/CodeSystem/observation-category","code":"laboratory"}]}],"code":{"coding":[{"system":"http://loinc.org","code":"2085-9","display":"Cholesterol in HDL [Mass/volume] in Serum or Plasma"}],"text":"Cholesterol in HDL [Mass/volume] in Serum or Plasma"},"subject":{"reference":"urn:uuid:416efeac-7ff6-439a-a898-ea493416a9bc"},"effectiveDateTime":"2024-08-19","performer":[{"display":"The Central European Lab"}],"valueQuantity":{"value":53.2,"unit":"mg/dL","system":"http://unitsofmeasure.org","code":"2085-9"},"referenceRange":[{"low":{"value":40,"system":"http://unitsofmeasure.org","code":"mg/dL"}},{"high":{"value":60,"system":"http://unitsofmeasure.org","code":"mg/dL"}}]}},{"fullUrl":"urn:uuid:383cef80-e73a-4aee-a62f-1b88cf150b52","resource":{"resourceType":"Observation","id":"383cef80-e73a-4aee-a62f-1b88cf150b52","meta":{"profile":["http://hl7.eu/fhir/laboratory/StructureDefinition/Observation-resultslab-eu-lab"]},"text":{"status":"generated","div":"<div xmlns=\"http://www.w3.org/1999/xhtml\"><a name=\"Observation_383cef80-e73a-4aee-a62f-1b88cf150b52\"> </a><p class=\"res-header-id\"><b>Generated Narrative: Observation 383cef80-e73a-4aee-a62f-1b88cf150b52</b></p><a name=\"383cef80-e73a-4aee-a62f-1b88cf150b52\"> </a><a name=\"hc383cef80-e73a-4aee-a62f-1b88cf150b52\"> </a><div style=\"display: inline-block; background-color: #d9e0e7; padding: 6px; margin: 4px; border: 1px solid #8da1b4; border-radius: 5px; line-height: 60%\"><p style=\"margin-bottom: 0px\"/><p style=\"margin-bottom: 0px\">Profile: <a href=\"http://hl7.eu/fhir/laboratory/0.1.1/StructureDefinition-Observation-resultslab-eu-lab.html\">Observation Results: laboratory</a></p></div><p><b>status</b>: Final</p><p><b>category</b>: <span title=\"Codes:{http://terminology.hl7.org/CodeSystem/observation-category laboratory}\">Laboratory</span></p><p><b>code</b>: <span title=\"Codes:{http://loinc.org 14959-1}\">Microalbumin/Creatinine [Mass Ratio] in Urine</span></p><p><b>subject</b>: <a href=\"Bundle-Instance-Bundle-fd87b2bb-d948-4d45-b334-8053ef6dceb0.html#urn-uuid-416efeac-7ff6-439a-a898-ea493416a9bc\">Filip Berg Male, DoB: 2000-03-28 ( Jurisdictional health number)</a></p><p><b>effective</b>: 2024-08-19</p><p><b>performer</b>: The Central European Lab</p><p><b>value</b>: 13.5 mg/g<span style=\"background: LightGoldenRodYellow\"> (Details: UCUM  code14959-1 = '14959-1')</span></p><h3>ReferenceRanges</h3><table class=\"grid\"><tr><td style=\"display: none\">-</td><td><b>Low</b></td><td><b>High</b></td></tr><tr><td style=\"display: none\">*</td><td>0 mg/g<span style=\"background: LightGoldenRodYellow\"> (Details: UCUM  codemg/g = 'mg/g')</span></td><td> </td></tr><tr><td style=\"display: none\">*</td><td> </td><td>30 mg/g<span style=\"background: LightGoldenRodYellow\"> (Details: UCUM  codemg/g = 'mg/g')</span></td></tr></table></div>"},"status":"final","category":[{"coding":[{"system":"http://terminology.hl7.org/CodeSystem/observation-category","code":"laboratory"}]}],"code":{"coding":[{"system":"http://loinc.org","code":"14959-1","display":"Microalbumin/Creatinine [Mass Ratio] in Urine"}],"text":"Microalbumin/Creatinine [Mass Ratio] in Urine"},"subject":{"reference":"urn:uuid:416efeac-7ff6-439a-a898-ea493416a9bc"},"effectiveDateTime":"2024-08-19","performer":[{"display":"The Central European Lab"}],"valueQuantity":{"value":13.5,"unit":"mg/g","system":"http://unitsofmeasure.org","code":"14959-1"},"referenceRange":[{"low":{"value":0,"system":"http://unitsofmeasure.org","code":"mg/g"}},{"high":{"value":30,"system":"http://unitsofmeasure.org","code":"mg/g"}}]}},{"fullUrl":"urn:uuid:9b0a6002-c292-4e10-923b-b5542d977e70","resource":{"resourceType":"DeviceUseStatement","id":"9b0a6002-c292-4e10-923b-b5542d977e70","meta":{"profile":["http://hl7.eu/fhir/eps/StructureDefinition/deviceUseStatement-eu-eps"]},"text":{"status":"generated","div":"<div xmlns=\"http://www.w3.org/1999/xhtml\"><a name=\"DeviceUseStatement_9b0a6002-c292-4e10-923b-b5542d977e70\"> </a><table class=\"hl7__ips\"><tr><td>Blood glucose meter (physical object)</td><td><span class=\"nb\">2024-08-19</span></td></tr></table></div>"},"status":"active","subject":{"reference":"urn:uuid:416efeac-7ff6-439a-a898-ea493416a9bc","display":"Filip Berg"},"timingPeriod":{"start":"2024-08-19"},"device":{"reference":"urn:uuid:3dbe4c8c-ecc6-43c3-a026-c820fea8c222","display":"Blood glucose meter (physical object)"}}},{"fullUrl":"urn:uuid:9b0a6002-c292-4e10-923b-b5542d977e70","resource":{"resourceType":"Device","id":"3dbe4c8c-ecc6-43c3-a026-c820fea8c222","meta":{"profile":["http://hl7.eu/fhir/eps/StructureDefinition/device-eu-eps"]},"text":{"status":"generated","div":"<div xmlns=\"http://www.w3.org/1999/xhtml\"><a name=\"Device_3dbe4c8c-ecc6-43c3-a026-c820fea8c222\"> </a><p class=\"res-header-id\"><b>Generated Narrative: Device 3dbe4c8c-ecc6-43c3-a026-c820fea8c222</b></p><a name=\"3dbe4c8c-ecc6-43c3-a026-c820fea8c222\"> </a><a name=\"hc3dbe4c8c-ecc6-43c3-a026-c820fea8c222\"> </a><div style=\"display: inline-block; background-color: #d9e0e7; padding: 6px; margin: 4px; border: 1px solid #8da1b4; border-radius: 5px; line-height: 60%\"><p style=\"margin-bottom: 0px\"/><p style=\"margin-bottom: 0px\">Profile: <a href=\"StructureDefinition-device-eu-eps.html\">Device (EPS)</a></p></div><blockquote><p><b>udiCarrier</b></p><blockquote><p><b>id</b></p>(01)67531503746659(11)240729(17)490813(10)107035972010673(21)22634271926766670</blockquote></blockquote><p><b>status</b>: Active</p><p><b>type</b>: <span title=\"Codes:{http://snomed.info/sct 337414009}\">Blood glucose meter (physical object)</span></p><p><b>patient</b>: <a href=\"Bundle-Instance-Bundle-fd87b2bb-d948-4d45-b334-8053ef6dceb0.html#urn-uuid-416efeac-7ff6-439a-a898-ea493416a9bc\">Filip Berg</a></p></div>"},"udiCarrier":[{"id":"(01)67531503746659(11)240729(17)490813(10)107035972010673(21)22634271926766670"}],"status":"active","type":{"coding":[{"system":"http://snomed.info/sct","code":"337414009","display":"Blood glucose meter (physical object)"}]},"patient":{"reference":"urn:uuid:416efeac-7ff6-439a-a898-ea493416a9bc","display":"Filip Berg"}}},{"fullUrl":"urn:uuid:763a7ce0-a1d5-477c-89ae-156e2ec78cad","resource":{"resourceType":"DeviceUseStatement","id":"763a7ce0-a1d5-477c-89ae-156e2ec78cad","meta":{"profile":["http://hl7.eu/fhir/eps/StructureDefinition/deviceUseStatement-eu-eps"]},"text":{"status":"generated","div":"<div xmlns=\"http://www.w3.org/1999/xhtml\"><a name=\"DeviceUseStatement_763a7ce0-a1d5-477c-89ae-156e2ec78cad\"> </a><table class=\"hl7__ips\"><tr><td>Home nebulizer (physical object)</td><td><span class=\"nb\">2008-11-08</span></td></tr></table></div>"},"status":"active","subject":{"reference":"urn:uuid:416efeac-7ff6-439a-a898-ea493416a9bc","display":"Filip Berg"},"timingPeriod":{"start":"2008-11-08"},"device":{"reference":"urn:uuid:684cda61-28c0-48df-833a-aff06523e0fb","display":"Home nebulizer (physical object)"}}},{"fullUrl":"urn:uuid:763a7ce0-a1d5-477c-89ae-156e2ec78cad","resource":{"resourceType":"Device","id":"684cda61-28c0-48df-833a-aff06523e0fb","meta":{"profile":["http://hl7.eu/fhir/eps/StructureDefinition/device-eu-eps"]},"text":{"status":"generated","div":"<div xmlns=\"http://www.w3.org/1999/xhtml\"><a name=\"Device_684cda61-28c0-48df-833a-aff06523e0fb\"> </a><p class=\"res-header-id\"><b>Generated Narrative: Device 684cda61-28c0-48df-833a-aff06523e0fb</b></p><a name=\"684cda61-28c0-48df-833a-aff06523e0fb\"> </a><a name=\"hc684cda61-28c0-48df-833a-aff06523e0fb\"> </a><div style=\"display: inline-block; background-color: #d9e0e7; padding: 6px; margin: 4px; border: 1px solid #8da1b4; border-radius: 5px; line-height: 60%\"><p style=\"margin-bottom: 0px\"/><p style=\"margin-bottom: 0px\">Profile: <a href=\"StructureDefinition-device-eu-eps.html\">Device (EPS)</a></p></div><blockquote><p><b>udiCarrier</b></p><blockquote><p><b>id</b></p>(01)41516204717883(11)081018(17)331102(10)58959527760465584(21)83735</blockquote></blockquote><p><b>status</b>: Active</p><p><b>type</b>: <span title=\"Codes:{http://snomed.info/sct 170615005}\">Home nebulizer (physical object)</span></p><p><b>patient</b>: <a href=\"Bundle-Instance-Bundle-fd87b2bb-d948-4d45-b334-8053ef6dceb0.html#urn-uuid-416efeac-7ff6-439a-a898-ea493416a9bc\">Filip Berg</a></p></div>"},"udiCarrier":[{"id":"(01)41516204717883(11)081018(17)331102(10)58959527760465584(21)83735"}],"status":"active","type":{"coding":[{"system":"http://snomed.info/sct","code":"170615005","display":"Home nebulizer (physical object)"}]},"patient":{"reference":"urn:uuid:416efeac-7ff6-439a-a898-ea493416a9bc","display":"Filip Berg"}}}]}