{"resourceType":"Bundle","id":"Instance-Bundle-fd6de626-cd66-4b9b-9d0a-43efe3bad092","meta":{"profile":["http://hl7.eu/fhir/eps/StructureDefinition/bundle-eu-eps"]},"identifier":{"system":"urn:oid:2.16.840.1.113883.2.51.999","value":"1525c7f3-b174-49ba-a1a7-e5c6c12d23f1","assigner":{"display":"HL7 Europe"}},"type":"document","timestamp":"2025-08-31T17:43:49Z","entry":[{"fullUrl":"urn:uuid:cbbdbec7-68b5-4a1c-bfcd-227f460be6f8","resource":{"resourceType":"Composition","id":"cbbdbec7-68b5-4a1c-bfcd-227f460be6f8","meta":{"profile":["http://hl7.eu/fhir/eps/StructureDefinition/composition-eu-eps"]},"text":{"status":"generated","div":"<div xmlns=\"http://www.w3.org/1999/xhtml\"><a name=\"Composition_cbbdbec7-68b5-4a1c-bfcd-227f460be6f8\"> </a><p class=\"res-header-id\"><b>Generated Narrative: Composition cbbdbec7-68b5-4a1c-bfcd-227f460be6f8</b></p><a name=\"cbbdbec7-68b5-4a1c-bfcd-227f460be6f8\"> </a><a name=\"hccbbdbec7-68b5-4a1c-bfcd-227f460be6f8\"> </a><div style=\"display: inline-block; background-color: #d9e0e7; padding: 6px; margin: 4px; border: 1px solid #8da1b4; border-radius: 5px; line-height: 60%\"><p style=\"margin-bottom: 0px\"/><p style=\"margin-bottom: 0px\">Profile: <a href=\"StructureDefinition-composition-eu-eps.html\">Composition (EPS)</a></p></div><p><b>identifier</b>: <code>urn:oid:2.16.840.1.113883.2.51.999</code>/665ddb0e-d5fd-4891-a962-6f5b33d01970</p><p><b>status</b>: Final</p><p><b>type</b>: <span title=\"Codes:{http://loinc.org 60591-5}\">Patient summary Document</span></p><p><b>date</b>: 2025-08-31 17:43:49+0000</p><p><b>author</b>: <a href=\"Bundle-Instance-Bundle-fd6de626-cd66-4b9b-9d0a-43efe3bad092.html#urn-uuid-640eda9d-9b94-472f-b2c9-d533b0c3df0c\">PractitionerRole</a></p><p><b>title</b>: European Patient Summary</p><p><b>confidentiality</b>: normal</p><p><b>custodian</b>: <a href=\"Bundle-Instance-Bundle-fd6de626-cd66-4b9b-9d0a-43efe3bad092.html#urn-uuid-82dcce97-9de8-4878-9fc1-114fa5b88118\">Organization med-IN-Park</a></p></div>"},"identifier":{"system":"urn:oid:2.16.840.1.113883.2.51.999","value":"665ddb0e-d5fd-4891-a962-6f5b33d01970","assigner":{"display":"HL7 Europe"}},"status":"final","type":{"coding":[{"system":"http://loinc.org","code":"60591-5","display":"Patient summary Document"}],"text":"Patient summary Document"},"subject":{"reference":"urn:uuid:68971a41-4b4d-45dc-9a30-945bd40c63aa"},"date":"2025-08-31T17:43:49Z","author":[{"reference":"urn:uuid:640eda9d-9b94-472f-b2c9-d533b0c3df0c"}],"title":"European Patient Summary","confidentiality":"N","custodian":{"reference":"urn:uuid:82dcce97-9de8-4878-9fc1-114fa5b88118"},"section":[{"title":"Problem list","code":{"coding":[{"system":"http://loinc.org","code":"11450-4","display":"Problem list - Reported"}]},"text":{"status":"generated","div":"<div xmlns=\"http://www.w3.org/1999/xhtml\"><table class=\"hl7__ips\"><tr><th>Condition</th><th>Onset Date</th><th>Status</th></tr><tr><td>Prediabetes</td><td><span class=\"nb\">2021-06-20</span></td><td>active</td></tr><tr><td>Anemia</td><td><span class=\"nb\">2021-06-20</span></td><td>active</td></tr></table></div>"},"entry":[{"reference":"urn:uuid:40c0de64-1f92-4b93-9664-653790168c2c"},{"reference":"urn:uuid:51fbef3a-e6ba-4bad-9ef0-d49060728511"}]},{"title":"History of Past Illness","code":{"coding":[{"system":"http://loinc.org","code":"11348-0","display":"History of Past illness Narrative"}]},"text":{"status":"generated","div":"<div xmlns=\"http://www.w3.org/1999/xhtml\"><table class=\"hl7__ips\"><tr><th>Condition</th><th>Period</th><th>Status</th></tr><tr><td><span class=\"grayedout\">Acute bronchitis</span></td><td><span class=\"nb\">2021-06-10 – 2021-06-30</span></td><td><span class=\"grayedout\">inactive</span></td></tr><tr><td><span class=\"grayedout\">Laceration of hand</span></td><td><span class=\"nb\">2018-09-15 – 2018-10-12</span></td><td><span class=\"grayedout\">inactive</span></td></tr><tr><td><span class=\"grayedout\">Laceration - injury</span></td><td><span class=\"nb\">2018-09-15 – 2018-10-12</span></td><td><span class=\"grayedout\">inactive</span></td></tr></table></div>"},"entry":[{"reference":"urn:uuid:fcf3fb9a-0bf3-482c-89b2-39a9fb2b3dd5"},{"reference":"urn:uuid:3e720ba7-60eb-4554-9eef-2a09d8a8b721"},{"reference":"urn:uuid:690f6afa-e4dd-486f-b430-a91a4f3b45fc"}]},{"title":"Medication list","code":{"coding":[{"system":"http://loinc.org","code":"10160-0","display":"History of Medication use Narrative"}]},"text":{"status":"generated","div":"<div xmlns=\"http://www.w3.org/1999/xhtml\"><table class=\"hl7__ips\"><tr><td>No known medications</td><td/><td/><td/><td/></tr></table></div>"},"entry":[{"reference":"urn:uuid:e3e2af92-2225-4f1d-a242-b00b8dd4a6c0"},{"reference":"urn:uuid:e3e2af92-2225-4f1d-a242-b00b8dd4a6c0"}]},{"title":"Immunizations list","code":{"coding":[{"system":"http://loinc.org","code":"11369-6","display":"History of Immunization Narrative"}]},"text":{"status":"generated","div":"<div xmlns=\"http://www.w3.org/1999/xhtml\"><table class=\"hl7__ips\"><tr><th>Vaccine</th><th>Date</th></tr><tr><td>Influenza virus antigen only vaccine product</td><td><span class=\"nb\">2024-06-16</span></td></tr><tr><td>SARS-CoV-2 mRNA vaccine</td><td><span class=\"nb\">2021-08-22</span></td></tr><tr><td>Hepatitis A virus antigen only vaccine product</td><td><span class=\"nb\">2020-06-07</span></td></tr><tr><td>Clostridium tetani toxoid antigen adsorbed only vaccine product</td><td><span class=\"nb\">2020-06-07</span></td></tr></table></div>"},"entry":[{"reference":"urn:uuid:d572088d-a59c-4e61-afb7-9cace9a4d079"},{"reference":"urn:uuid:ea66ad41-d5f8-46d7-bd19-5e77c0b9985d"},{"reference":"urn:uuid:742660c8-3f43-4908-aa66-17a17318cecd"},{"reference":"urn:uuid:7ba2eab7-83bd-4b4e-9924-a9dcfb16ad9b"}]},{"title":"Allergies and Intolerances","code":{"coding":[{"system":"http://loinc.org","code":"48765-2","display":"Allergies and adverse reactions Document"}]},"text":{"status":"generated","div":"<div xmlns=\"http://www.w3.org/1999/xhtml\"><table class=\"hl7__ips\"><tr><td>No known allergies or intolerances</td></tr></table></div>"},"entry":[{"reference":"urn:uuid:a0f54893-f83c-4c23-be04-2306c256a321"}]},{"title":"Care Plan","code":{"coding":[{"system":"http://loinc.org","code":"18776-5","display":"Plan of care note"}]},"text":{"status":"generated","div":"<div xmlns=\"http://www.w3.org/1999/xhtml\"><table class=\"hl7__ips\"><tr><th>Active Planned Care</th><th>Date</th><th>Reason</th></tr><tr><td>Diabetes self management plan</td><td><span class=\"nb\">2021-06-20</span></td><td>Prediabetes</td></tr></table></div>"},"entry":[{"reference":"urn:uuid:faf14dd0-ec38-4f93-a161-9f9779229977"}]},{"title":"Vital Signs","code":{"coding":[{"system":"http://loinc.org","code":"8716-3","display":"Vital signs"}]},"text":{"status":"generated","div":"<div xmlns=\"http://www.w3.org/1999/xhtml\"><table class=\"hl7__ips\"><tr><th>Vital Signs</th><th>2024-06-16</th><th>2022-06-12</th></tr><tr><td>Body Height</td><td>181.6 cm</td><td>181.6 cm</td></tr><tr><td>Pain severity - 0-10 verbal numeric rating [Score] - Reported</td><td>2 {score}</td><td>1 {score}</td></tr><tr><td>Body Weight</td><td>100.1 kg</td><td>100.1 kg</td></tr><tr><td>Body mass index (BMI) [Ratio]</td><td>30.4 kg/m2</td><td>30.4 kg/m2</td></tr><tr><td>Diastolic Blood Pressure</td><td>75 mm[Hg]</td><td>78 mm[Hg]</td></tr><tr><td>Systolic Blood Pressure</td><td>120 mm[Hg]</td><td>113 mm[Hg]</td></tr><tr><td>Heart rate</td><td>69 /min</td><td>64 /min</td></tr><tr><td>Respiratory rate</td><td>14 /min</td><td>15 /min</td></tr></table></div>"},"entry":[{"reference":"urn:uuid:fa952724-ac1f-49de-a7d6-e8a7c1b17ea5"},{"reference":"urn:uuid:fa0df497-88cf-4da5-8e35-6f5d36a79564"},{"reference":"urn:uuid:d165f832-0027-47b0-945f-ff19e3e05158"},{"reference":"urn:uuid:d5b064db-6086-4df3-ae5b-5fd6fb12e27e"},{"reference":"urn:uuid:0ae831c9-7753-4cd2-9494-5d0ca497425c"},{"reference":"urn:uuid:4e06abf0-3df2-4d38-9ada-d0e2b4aa2fff"},{"reference":"urn:uuid:72c1f962-7ffc-4fbb-a132-7bc9af9d9521"},{"reference":"urn:uuid:023de8a3-5f2b-4995-9160-57c8e4225747"},{"reference":"urn:uuid:e076d609-3b1a-4797-aee7-a4ef3513c16e"},{"reference":"urn:uuid:d080778e-7c6e-4950-a593-d2b57c9b7ef4"},{"reference":"urn:uuid:d9f9c151-1c75-4e7c-8544-391e06d985e8"},{"reference":"urn:uuid:5bddab2d-255e-4d4a-a71d-1f689fed58b3"},{"reference":"urn:uuid:69834155-b168-462d-a3db-2ecb639ab8fc"},{"reference":"urn:uuid:12f9740d-8bea-4b59-83bf-45013792d79c"},{"reference":"urn:uuid:c13d60a4-18fb-41f2-a897-11dc9e127750"},{"reference":"urn:uuid:b6d38647-707a-4605-bc32-73e55de512ca"}]},{"title":"Relevant diagnostic tests/laboratory data","code":{"coding":[{"system":"http://loinc.org","code":"30954-2","display":"Relevant diagnostic tests/laboratory data note"}]},"text":{"status":"generated","div":"<div xmlns=\"http://www.w3.org/1999/xhtml\"><table class=\"hl7__ips\"><table class=\"hl7__ips\"><thead><tr><th>Recent Lab Observations</th><th>27 Jun 2021</th><th>Reference Range</th><th>Unit</th></tr></thead><tbody><tr><td>Hemoglobin A1c/Hemoglobin.total in Blood</td><td><strong>6.3 H</strong></td><td>4.8 - 5.7</td><td>%</td></tr><tr><td>Glucose [Mass/volume] in Blood</td><td>92.5</td><td>70 - 100</td><td>mg/dL</td></tr><tr><td>Urea nitrogen [Mass/volume] in Blood</td><td>19.9</td><td>7 - 50</td><td>mg/dL</td></tr><tr><td>Creatinine [Mass/volume] in Blood</td><td><strong>1.6 H</strong></td><td>0.9 - 1.3</td><td>mg/dL</td></tr><tr><td>Calcium [Mass/volume] in Blood</td><td>8.5</td><td>8.5 - 10.5</td><td>mg/dL</td></tr><tr><td>Sodium [Moles/volume] in Blood</td><td>143.5</td><td>135 - 145</td><td>mmol/L</td></tr><tr><td>Potassium [Moles/volume] in Blood</td><td>5.0</td><td>3.5 - 5.3</td><td>mmol/L</td></tr><tr><td>Chloride [Moles/volume] in Blood</td><td>103.3</td><td>98 - 107</td><td>mmol/L</td></tr><tr><td>Carbon dioxide, total [Moles/volume] in Blood</td><td><strong>20.3 L</strong></td><td>22 - 29</td><td>mmol/L</td></tr><tr><td>Cholesterol [Mass/volume] in Serum or Plasma</td><td><strong>211.5 H</strong></td><td>0 - 200</td><td>mg/dL</td></tr><tr><td>Triglyceride [Mass/volume] in Serum or Plasma</td><td>108.5</td><td>0 - 150</td><td>mg/dL</td></tr><tr><td>Cholesterol in LDL [Mass/volume] in Serum or Plasma by Direct assay</td><td><strong>133.3 H</strong></td><td>0 - 130</td><td>mg/dL</td></tr><tr><td>Cholesterol in HDL [Mass/volume] in Serum or Plasma</td><td>56.4</td><td>40 - 60</td><td>mg/dL</td></tr><tr><td>Leukocytes [#/volume] in Blood by Automated count</td><td>3.9</td><td>3.6 - 10.5</td><td>10*3/uL</td></tr><tr><td>Erythrocytes [#/volume] in Blood by Automated count</td><td>4.3</td><td>4.2 - 5.9</td><td>10*6/uL</td></tr><tr><td>Hemoglobin [Mass/volume] in Blood</td><td><strong>13.1 L</strong></td><td>13.5 - 17.5</td><td>g/dL</td></tr><tr><td>Hematocrit [Volume Fraction] of Blood by Automated count</td><td><strong>36.3 L</strong></td><td>38 - 50</td><td>%</td></tr><tr><td>MCV [Entitic volume] by Automated count</td><td>90.9</td><td>82 - 98</td><td>fL</td></tr><tr><td>MCH [Entitic mass] by Automated count</td><td>32.2</td><td>27 - 34</td><td>pg</td></tr><tr><td>MCHC [Mass/volume] by Automated count</td><td>33.5</td><td>31 - 35</td><td>g/dL</td></tr><tr><td>Erythrocyte distribution width [Entitic volume] by Automated count</td><td>41.6</td><td>39 - 55</td><td>fL</td></tr><tr><td>Platelets [#/volume] in Blood by Automated count</td><td>269.8</td><td>150 - 363</td><td>10*3/uL</td></tr><tr><td>Platelet distribution width [Entitic volume] in Blood by Automated count</td><td>393.0</td><td>150 - 450</td><td>fL</td></tr><tr><td>Platelet mean volume [Entitic volume] in Blood by Automated count</td><td>10.0</td><td>7.2 - 13.5</td><td>fL</td></tr></tbody></table></table></div>"},"entry":[{"reference":"urn:uuid:ef10e0d9-ce96-404d-a0b9-b2147289415a"},{"reference":"urn:uuid:0f05e342-ca06-4cf9-9470-ceffe45a9230"},{"reference":"urn:uuid:c6b261ce-e3ee-4616-8a8d-79c138d18700"},{"reference":"urn:uuid:e8c17eee-6194-4155-b4fd-f701e151eef5"},{"reference":"urn:uuid:a40545f6-cbb0-48fa-99e6-22f02a75c58d"},{"reference":"urn:uuid:7b59ff3d-0153-4257-bff2-2325265a5fe5"},{"reference":"urn:uuid:9a6e7ef1-9bee-4a14-9e09-acd4444fb6a7"},{"reference":"urn:uuid:ae7030c5-b296-4989-a595-4524732ed7e3"},{"reference":"urn:uuid:d1f2084c-96ba-4841-aa57-8b59851bf068"},{"reference":"urn:uuid:390833fa-12d8-4af3-b82f-f65941232359"},{"reference":"urn:uuid:3e7ada38-cfb8-46bd-81a3-d1745f9fe151"},{"reference":"urn:uuid:8ef49a0a-6319-41ae-b4b0-96afd306ba2d"},{"reference":"urn:uuid:fc4f1633-4f27-4f4e-8a75-5b2c588fa8b3"},{"reference":"urn:uuid:1b670f64-a27b-406c-a094-f93ad4aee2ef"},{"reference":"urn:uuid:bcc4e2f5-5444-4bfa-85a5-9f64629689c3"},{"reference":"urn:uuid:ed0fb6b6-80a1-4b95-a347-41810f8917ad"},{"reference":"urn:uuid:3666cc85-b7ce-4cf5-8eb7-1e60e29eb2be"},{"reference":"urn:uuid:211ada02-a1fe-4aca-a274-a9f3341c6e82"},{"reference":"urn:uuid:e5744eae-cbd4-4bc1-bb7f-148d62dfa6be"},{"reference":"urn:uuid:c1f2e29d-ad50-463f-a4a3-6f62cd5d6450"},{"reference":"urn:uuid:0bd9f0b0-0fed-4c8f-9743-20e61b455ef9"},{"reference":"urn:uuid:3b2c2772-78df-4769-85a9-f770af4c6432"},{"reference":"urn:uuid:b207ada7-3ad8-4461-899e-70ffda4008dc"},{"reference":"urn:uuid:ed125bd4-f0aa-4b2b-a37f-df20bfecd74e"}]},{"title":"Device Use","code":{"coding":[{"system":"http://loinc.org","code":"46264-8","display":"History of medical device use"}]},"text":{"status":"generated","div":"<div xmlns=\"http://www.w3.org/1999/xhtml\"><table class=\"hl7__ips\"><tr><th>Device</th><th>Date (since)</th></tr><tr><td>Blood glucose meter (physical object)</td><td><span class=\"nb\">2021-06-20</span></td></tr></table></div>"},"entry":[{"reference":"urn:uuid:5761a45a-7c22-46fb-baa5-cdb66a568b0c"}]}]}},{"fullUrl":"urn:uuid:68971a41-4b4d-45dc-9a30-945bd40c63aa","resource":{"resourceType":"Patient","id":"68971a41-4b4d-45dc-9a30-945bd40c63aa","meta":{"profile":["http://hl7.eu/fhir/eps/StructureDefinition/patient-eu-eps"]},"text":{"status":"generated","div":"<div xmlns=\"http://www.w3.org/1999/xhtml\"><a name=\"Patient_68971a41-4b4d-45dc-9a30-945bd40c63aa\"> </a><table class=\"hl7__ips\"><tr><td>Mihajel Stamač</td><td>1981-02-27</td></tr></table></div>"},"identifier":[{"type":{"coding":[{"system":"http://terminology.hl7.org/CodeSystem/v2-0203","code":"JHN"}]},"system":"http://ec.europa.eu/identifier/eci","value":"2337-975462-7"},{"type":{"coding":[{"system":"http://terminology.hl7.org/CodeSystem/v2-0203","code":"MR"}]},"system":"http://local.setting.eu/identifier","value":"cb6d832f-d2ba-e68e-65bd-71a84b30a8b1"}],"name":[{"text":"Mihajel Stamač","family":"Stamač","given":["Mihajel"]}],"telecom":[{"system":"phone","value":"+49 08458 24 29 22"}],"gender":"male","birthDate":"1981-02-27","address":[{"use":"home","type":"physical","line":["Rankestraße 6"],"city":"Eitensheim","postalCode":"85117","country":"Germany"}]}},{"fullUrl":"urn:uuid:640eda9d-9b94-472f-b2c9-d533b0c3df0c","resource":{"resourceType":"PractitionerRole","id":"640eda9d-9b94-472f-b2c9-d533b0c3df0c","meta":{"profile":["http://hl7.eu/fhir/base/StructureDefinition/practitionerRole-eu"]},"text":{"status":"generated","div":"<div xmlns=\"http://www.w3.org/1999/xhtml\"><a name=\"PractitionerRole_640eda9d-9b94-472f-b2c9-d533b0c3df0c\"> </a><p class=\"res-header-id\"><b>Generated Narrative: PractitionerRole 640eda9d-9b94-472f-b2c9-d533b0c3df0c</b></p><a name=\"640eda9d-9b94-472f-b2c9-d533b0c3df0c\"> </a><a name=\"hc640eda9d-9b94-472f-b2c9-d533b0c3df0c\"> </a><div style=\"display: inline-block; background-color: #d9e0e7; padding: 6px; margin: 4px; border: 1px solid #8da1b4; border-radius: 5px; line-height: 60%\"><p style=\"margin-bottom: 0px\"/><p style=\"margin-bottom: 0px\">Profile: <a href=\"https://build.fhir.org/ig/hl7-eu/base/StructureDefinition-practitionerRole-eu.html\">PractitionerRole (EU base)</a></p></div><p><b>practitioner</b>: <a href=\"Bundle-Instance-Bundle-fd6de626-cd66-4b9b-9d0a-43efe3bad092.html#urn-uuid-33eafcf0-9a73-481f-ae18-f61cc8f4ddf5\">Practitioner Hel Ping </a></p><p><b>organization</b>: <a href=\"Bundle-Instance-Bundle-fd6de626-cd66-4b9b-9d0a-43efe3bad092.html#urn-uuid-82dcce97-9de8-4878-9fc1-114fa5b88118\">Organization med-IN-Park</a></p></div>"},"practitioner":{"reference":"urn:uuid:33eafcf0-9a73-481f-ae18-f61cc8f4ddf5"},"organization":{"reference":"urn:uuid:82dcce97-9de8-4878-9fc1-114fa5b88118"}}},{"fullUrl":"urn:uuid:33eafcf0-9a73-481f-ae18-f61cc8f4ddf5","resource":{"resourceType":"Practitioner","id":"33eafcf0-9a73-481f-ae18-f61cc8f4ddf5","meta":{"profile":["http://hl7.eu/fhir/base/StructureDefinition/practitioner-eu"]},"text":{"status":"generated","div":"<div xmlns=\"http://www.w3.org/1999/xhtml\"><a name=\"Practitioner_33eafcf0-9a73-481f-ae18-f61cc8f4ddf5\"> </a><p class=\"res-header-id\"><b>Generated Narrative: Practitioner 33eafcf0-9a73-481f-ae18-f61cc8f4ddf5</b></p><a name=\"33eafcf0-9a73-481f-ae18-f61cc8f4ddf5\"> </a><a name=\"hc33eafcf0-9a73-481f-ae18-f61cc8f4ddf5\"> </a><div style=\"display: inline-block; background-color: #d9e0e7; padding: 6px; margin: 4px; border: 1px solid #8da1b4; border-radius: 5px; line-height: 60%\"><p style=\"margin-bottom: 0px\"/><p style=\"margin-bottom: 0px\">Profile: <a href=\"https://build.fhir.org/ig/hl7-eu/base/StructureDefinition-practitioner-eu.html\">Practitioner (EU base)</a></p></div><p><b>name</b>: Hel Ping </p></div>"},"name":[{"family":"Ping","given":["Hel"],"prefix":["Dr."]}]}},{"fullUrl":"urn:uuid:82dcce97-9de8-4878-9fc1-114fa5b88118","resource":{"resourceType":"Organization","id":"82dcce97-9de8-4878-9fc1-114fa5b88118","meta":{"profile":["http://hl7.eu/fhir/base/StructureDefinition/organization-eu"]},"text":{"status":"generated","div":"<div xmlns=\"http://www.w3.org/1999/xhtml\"><a name=\"Organization_82dcce97-9de8-4878-9fc1-114fa5b88118\"> </a><p class=\"res-header-id\"><b>Generated Narrative: Organization 82dcce97-9de8-4878-9fc1-114fa5b88118</b></p><a name=\"82dcce97-9de8-4878-9fc1-114fa5b88118\"> </a><a name=\"hc82dcce97-9de8-4878-9fc1-114fa5b88118\"> </a><div style=\"display: inline-block; background-color: #d9e0e7; padding: 6px; margin: 4px; border: 1px solid #8da1b4; border-radius: 5px; line-height: 60%\"><p style=\"margin-bottom: 0px\"/><p style=\"margin-bottom: 0px\">Profile: <a href=\"https://build.fhir.org/ig/hl7-eu/base/StructureDefinition-organization-eu.html\">Organization (EU base)</a></p></div><p><b>identifier</b>: <code>urn:oid:2.16.840.1.113883.2.51.999</code>/335c2c1c-452a-4e6b-b1f7-8453a8a3b44a</p><p><b>name</b>: med-IN-Park</p><p><b>address</b>: Am Westpark 1 Ingolstadt 85049 Germany </p></div>"},"identifier":[{"system":"urn:oid:2.16.840.1.113883.2.51.999","value":"335c2c1c-452a-4e6b-b1f7-8453a8a3b44a","assigner":{"display":"HL7 Europe"}}],"name":"med-IN-Park","address":[{"line":["Am Westpark 1"],"city":"Ingolstadt","postalCode":"85049","country":"Germany"}]}},{"fullUrl":"urn:uuid:40c0de64-1f92-4b93-9664-653790168c2c","resource":{"resourceType":"Condition","id":"40c0de64-1f92-4b93-9664-653790168c2c","meta":{"profile":["http://hl7.org/fhir/uv/ips/StructureDefinition/Condition-uv-ips"]},"text":{"status":"generated","div":"<div xmlns=\"http://www.w3.org/1999/xhtml\"><a name=\"Condition_40c0de64-1f92-4b93-9664-653790168c2c\"> </a><table class=\"hl7__ips\"><tr><td>Prediabetes</td><td><span class=\"nb\">2021-06-20</span></td><td>active</td></tr></table></div>"},"clinicalStatus":{"coding":[{"system":"http://terminology.hl7.org/CodeSystem/condition-clinical","code":"active"}]},"category":[{"coding":[{"system":"http://terminology.hl7.org/CodeSystem/condition-category","code":"problem-list-item","display":"Problem List Item"}]}],"code":{"coding":[{"system":"http://snomed.info/sct","code":"15777000","display":"Prediabetes (disorder)"}],"text":"Prediabetes"},"subject":{"reference":"urn:uuid:68971a41-4b4d-45dc-9a30-945bd40c63aa","display":"Mihajel Stamač"},"onsetDateTime":"2021-06-20","asserter":{"reference":"urn:uuid:33eafcf0-9a73-481f-ae18-f61cc8f4ddf5","display":"Dr. Hel Ping"}}},{"fullUrl":"urn:uuid:51fbef3a-e6ba-4bad-9ef0-d49060728511","resource":{"resourceType":"Condition","id":"51fbef3a-e6ba-4bad-9ef0-d49060728511","meta":{"profile":["http://hl7.org/fhir/uv/ips/StructureDefinition/Condition-uv-ips"]},"text":{"status":"generated","div":"<div xmlns=\"http://www.w3.org/1999/xhtml\"><a name=\"Condition_51fbef3a-e6ba-4bad-9ef0-d49060728511\"> </a><table class=\"hl7__ips\"><tr><td>Anemia</td><td><span class=\"nb\">2021-06-20</span></td><td>active</td></tr></table></div>"},"clinicalStatus":{"coding":[{"system":"http://terminology.hl7.org/CodeSystem/condition-clinical","code":"active"}]},"category":[{"coding":[{"system":"http://terminology.hl7.org/CodeSystem/condition-category","code":"problem-list-item","display":"Problem List Item"}]}],"code":{"coding":[{"system":"http://snomed.info/sct","code":"271737000","display":"Anemia (disorder)"}],"text":"Anemia"},"subject":{"reference":"urn:uuid:68971a41-4b4d-45dc-9a30-945bd40c63aa","display":"Mihajel Stamač"},"onsetDateTime":"2021-06-20","asserter":{"reference":"urn:uuid:33eafcf0-9a73-481f-ae18-f61cc8f4ddf5","display":"Dr. Hel Ping"}}},{"fullUrl":"urn:uuid:fcf3fb9a-0bf3-482c-89b2-39a9fb2b3dd5","resource":{"resourceType":"Condition","id":"fcf3fb9a-0bf3-482c-89b2-39a9fb2b3dd5","meta":{"profile":["http://hl7.org/fhir/uv/ips/StructureDefinition/Condition-uv-ips"]},"text":{"status":"generated","div":"<div xmlns=\"http://www.w3.org/1999/xhtml\"><a name=\"Condition_fcf3fb9a-0bf3-482c-89b2-39a9fb2b3dd5\"> </a><table class=\"hl7__ips\"><tr><td><span class=\"grayedout\">Acute bronchitis</span></td><td><span class=\"nb\">2021-06-10 – 2021-06-30</span></td><td><span class=\"grayedout\">inactive</span></td></tr></table></div>"},"clinicalStatus":{"coding":[{"system":"http://terminology.hl7.org/CodeSystem/condition-clinical","code":"inactive"}]},"category":[{"coding":[{"system":"http://terminology.hl7.org/CodeSystem/condition-category","code":"problem-list-item","display":"Problem List Item"}]}],"code":{"coding":[{"system":"http://snomed.info/sct","code":"10509002","display":"Acute bronchitis (disorder)"}],"text":"Acute bronchitis"},"subject":{"reference":"urn:uuid:68971a41-4b4d-45dc-9a30-945bd40c63aa","display":"Mihajel Stamač"},"onsetDateTime":"2021-06-10","abatementDateTime":"2021-06-30","asserter":{"reference":"urn:uuid:33eafcf0-9a73-481f-ae18-f61cc8f4ddf5","display":"Dr. Hel Ping"}}},{"fullUrl":"urn:uuid:3e720ba7-60eb-4554-9eef-2a09d8a8b721","resource":{"resourceType":"Condition","id":"3e720ba7-60eb-4554-9eef-2a09d8a8b721","meta":{"profile":["http://hl7.org/fhir/uv/ips/StructureDefinition/Condition-uv-ips"]},"text":{"status":"generated","div":"<div xmlns=\"http://www.w3.org/1999/xhtml\"><a name=\"Condition_3e720ba7-60eb-4554-9eef-2a09d8a8b721\"> </a><table class=\"hl7__ips\"><tr><td><span class=\"grayedout\">Laceration of hand</span></td><td><span class=\"nb\">2018-09-15 – 2018-10-12</span></td><td><span class=\"grayedout\">inactive</span></td></tr></table></div>"},"clinicalStatus":{"coding":[{"system":"http://terminology.hl7.org/CodeSystem/condition-clinical","code":"inactive"}]},"category":[{"coding":[{"system":"http://terminology.hl7.org/CodeSystem/condition-category","code":"problem-list-item","display":"Problem List Item"}]}],"code":{"coding":[{"system":"http://snomed.info/sct","code":"284549007","display":"Laceration of hand (disorder)"}],"text":"Laceration of hand"},"subject":{"reference":"urn:uuid:68971a41-4b4d-45dc-9a30-945bd40c63aa","display":"Mihajel Stamač"},"onsetDateTime":"2018-09-15","abatementDateTime":"2018-10-12","asserter":{"reference":"urn:uuid:33eafcf0-9a73-481f-ae18-f61cc8f4ddf5","display":"Dr. Hel Ping"}}},{"fullUrl":"urn:uuid:690f6afa-e4dd-486f-b430-a91a4f3b45fc","resource":{"resourceType":"Condition","id":"690f6afa-e4dd-486f-b430-a91a4f3b45fc","meta":{"profile":["http://hl7.org/fhir/uv/ips/StructureDefinition/Condition-uv-ips"]},"text":{"status":"generated","div":"<div xmlns=\"http://www.w3.org/1999/xhtml\"><a name=\"Condition_690f6afa-e4dd-486f-b430-a91a4f3b45fc\"> </a><table class=\"hl7__ips\"><tr><td><span class=\"grayedout\">Laceration - injury</span></td><td><span class=\"nb\">2018-09-15 – 2018-10-12</span></td><td><span class=\"grayedout\">inactive</span></td></tr></table></div>"},"clinicalStatus":{"coding":[{"system":"http://terminology.hl7.org/CodeSystem/condition-clinical","code":"inactive"}]},"category":[{"coding":[{"system":"http://terminology.hl7.org/CodeSystem/condition-category","code":"problem-list-item","display":"Problem List Item"}]}],"code":{"coding":[{"system":"http://snomed.info/sct","code":"312608009","display":"Laceration - injury (disorder)"}],"text":"Laceration - injury"},"subject":{"reference":"urn:uuid:68971a41-4b4d-45dc-9a30-945bd40c63aa","display":"Mihajel Stamač"},"onsetDateTime":"2018-09-15","abatementDateTime":"2018-10-12","asserter":{"reference":"urn:uuid:33eafcf0-9a73-481f-ae18-f61cc8f4ddf5","display":"Dr. Hel Ping"}}},{"fullUrl":"urn:uuid:e3e2af92-2225-4f1d-a242-b00b8dd4a6c0","resource":{"resourceType":"MedicationStatement","id":"e3e2af92-2225-4f1d-a242-b00b8dd4a6c0","meta":{"profile":["http://hl7.eu/fhir/eps/StructureDefinition/MedicationStatement-eu-eps"]},"text":{"status":"generated","div":"<div xmlns=\"http://www.w3.org/1999/xhtml\"><a name=\"MedicationStatement_e3e2af92-2225-4f1d-a242-b00b8dd4a6c0\"> </a><table class=\"hl7__ips\"><tr><td>No known medications</td><td/><td/><td/><td/></tr></table></div>"},"status":"active","medicationCodeableConcept":{"coding":[{"system":"http://snomed.info/sct","code":"787481004","display":"No known medications (situation)"}]},"subject":{"reference":"urn:uuid:68971a41-4b4d-45dc-9a30-945bd40c63aa","display":"Mihajel Stamač"},"effectivePeriod":{"extension":[{"url":"http://hl7.org/fhir/StructureDefinition/data-absent-reason","valueCode":"unknown"}]}}},{"fullUrl":"urn:uuid:e3e2af92-2225-4f1d-a242-b00b8dd4a6c0","resource":{"resourceType":"MedicationStatement","id":"e3e2af92-2225-4f1d-a242-b00b8dd4a6c0","meta":{"profile":["http://hl7.eu/fhir/eps/StructureDefinition/MedicationStatement-eu-eps"]},"text":{"status":"generated","div":"<div xmlns=\"http://www.w3.org/1999/xhtml\"><a name=\"MedicationStatement_e3e2af92-2225-4f1d-a242-b00b8dd4a6c0\"> </a><table class=\"hl7__ips\"><tr><td>No known medications</td><td/><td/><td/><td/></tr></table></div>"},"status":"active","medicationCodeableConcept":{"coding":[{"system":"http://snomed.info/sct","code":"787481004","display":"No known medications (situation)"}]},"subject":{"reference":"urn:uuid:68971a41-4b4d-45dc-9a30-945bd40c63aa","display":"Mihajel Stamač"},"effectivePeriod":{"extension":[{"url":"http://hl7.org/fhir/StructureDefinition/data-absent-reason","valueCode":"unknown"}]}}},{"fullUrl":"urn:uuid:d572088d-a59c-4e61-afb7-9cace9a4d079","resource":{"resourceType":"Immunization","id":"d572088d-a59c-4e61-afb7-9cace9a4d079","meta":{"profile":["http://hl7.org/fhir/uv/ips/StructureDefinition/Immunization-uv-ips"]},"text":{"status":"generated","div":"<div xmlns=\"http://www.w3.org/1999/xhtml\"><a name=\"Immunization_d572088d-a59c-4e61-afb7-9cace9a4d079\"> </a><table class=\"hl7__ips\"><tr><td>Influenza virus antigen only vaccine product</td><td><span class=\"nb\">2024-06-16</span></td></tr></table></div>"},"status":"completed","vaccineCode":{"coding":[{"system":"http://snomed.info/sct","code":"1181000221105","display":"Vaccine product containing only Influenza virus antigen (medicinal product)"},{"system":"http://www.whocc.no/atc","code":"J07BB02","display":"influenza, inactivated, split virus or surface antigen"},{"system":"http://hl7.org/fhir/sid/cvx","code":"140","display":"Influenza  seasonal  injectable  preservative free"}],"text":"Influenza virus antigen only vaccine product"},"patient":{"reference":"urn:uuid:68971a41-4b4d-45dc-9a30-945bd40c63aa","display":"Mihajel Stamač"},"occurrenceDateTime":"2024-06-16","lotNumber":"FE-QhlvQ7","expirationDate":"2024-12-04","site":{"coding":[{"system":"http://snomed.info/sct","code":"244979005","display":"Entire muscle of upper arm"}],"text":"Entire muscle of upper arm"},"route":{"coding":[{"system":"http://snomed.info/sct","code":"78421000","display":"Intramuscular route"}],"text":"Intramuscular route"}}},{"fullUrl":"urn:uuid:ea66ad41-d5f8-46d7-bd19-5e77c0b9985d","resource":{"resourceType":"Immunization","id":"ea66ad41-d5f8-46d7-bd19-5e77c0b9985d","meta":{"profile":["http://hl7.org/fhir/uv/ips/StructureDefinition/Immunization-uv-ips"]},"text":{"status":"generated","div":"<div xmlns=\"http://www.w3.org/1999/xhtml\"><a name=\"Immunization_ea66ad41-d5f8-46d7-bd19-5e77c0b9985d\"> </a><table class=\"hl7__ips\"><tr><td>SARS-CoV-2 mRNA vaccine</td><td><span class=\"nb\">2021-08-22</span></td></tr></table></div>"},"status":"completed","vaccineCode":{"coding":[{"system":"http://snomed.info/sct","code":"1119349007","display":"Vaccine product containing only severe acute respiratory syndrome coronavirus 2 messenger ribonucleic acid (medicinal product)"},{"system":"http://www.whocc.no/atc","code":"J07BX03","display":"COVID-19 mRNA vaccines"},{"system":"http://hl7.org/fhir/sid/cvx","code":"207","display":"SARS-COV-2 (COVID-19) vaccine  mRNA  spike protein  LNP  preservative free  100 mcg/0.5mL dose"}],"text":"SARS-CoV-2 mRNA vaccine"},"patient":{"reference":"urn:uuid:68971a41-4b4d-45dc-9a30-945bd40c63aa","display":"Mihajel Stamač"},"occurrenceDateTime":"2021-08-22","lotNumber":"QI-MlQdOFani","expirationDate":"2021-12-18","site":{"coding":[{"system":"http://snomed.info/sct","code":"244979005","display":"Entire muscle of upper arm"}],"text":"Entire muscle of upper arm"},"route":{"coding":[{"system":"http://snomed.info/sct","code":"78421000","display":"Intramuscular route"}],"text":"Intramuscular route"}}},{"fullUrl":"urn:uuid:742660c8-3f43-4908-aa66-17a17318cecd","resource":{"resourceType":"Immunization","id":"742660c8-3f43-4908-aa66-17a17318cecd","meta":{"profile":["http://hl7.org/fhir/uv/ips/StructureDefinition/Immunization-uv-ips"]},"text":{"status":"generated","div":"<div xmlns=\"http://www.w3.org/1999/xhtml\"><a name=\"Immunization_742660c8-3f43-4908-aa66-17a17318cecd\"> </a><table class=\"hl7__ips\"><tr><td>Hepatitis A virus antigen only vaccine product</td><td><span class=\"nb\">2020-06-07</span></td></tr></table></div>"},"status":"completed","vaccineCode":{"coding":[{"system":"http://snomed.info/sct","code":"871751006","display":"Vaccine product containing Hepatitis A virus antigen"},{"system":"http://www.whocc.no/atc","code":"J07BC02","display":"Hepatitis A vaccines"},{"system":"http://hl7.org/fhir/sid/cvx","code":"52","display":"Hep A  adult"}],"text":"Hepatitis A virus antigen only vaccine product"},"patient":{"reference":"urn:uuid:68971a41-4b4d-45dc-9a30-945bd40c63aa","display":"Mihajel Stamač"},"occurrenceDateTime":"2020-06-07","lotNumber":"ZH-dFBPgoVjz","expirationDate":"2021-02-28","site":{"coding":[{"system":"http://snomed.info/sct","code":"244979005","display":"Entire muscle of upper arm"}],"text":"Entire muscle of upper arm"},"route":{"coding":[{"system":"http://snomed.info/sct","code":"78421000","display":"Intramuscular route"}],"text":"Intramuscular route"}}},{"fullUrl":"urn:uuid:7ba2eab7-83bd-4b4e-9924-a9dcfb16ad9b","resource":{"resourceType":"Immunization","id":"7ba2eab7-83bd-4b4e-9924-a9dcfb16ad9b","meta":{"profile":["http://hl7.org/fhir/uv/ips/StructureDefinition/Immunization-uv-ips"]},"text":{"status":"generated","div":"<div xmlns=\"http://www.w3.org/1999/xhtml\"><a name=\"Immunization_7ba2eab7-83bd-4b4e-9924-a9dcfb16ad9b\"> </a><table class=\"hl7__ips\"><tr><td>Clostridium tetani toxoid antigen adsorbed only vaccine product</td><td><span class=\"nb\">2020-06-07</span></td></tr></table></div>"},"status":"completed","vaccineCode":{"coding":[{"system":"http://snomed.info/sct","code":"777725002","display":"Vaccine product containing only Clostridium tetani toxoid antigen adsorbed (medicinal product)"},{"system":"http://www.whocc.no/atc","code":"J07AM51","display":"tetanus toxoid, combinations with diphtheria toxoid"},{"system":"http://hl7.org/fhir/sid/cvx","code":"113","display":"Td (adult)  5 Lf tetanus toxoid  preservative free  adsorbed"}],"text":"Clostridium tetani toxoid antigen adsorbed only vaccine product"},"patient":{"reference":"urn:uuid:68971a41-4b4d-45dc-9a30-945bd40c63aa","display":"Mihajel Stamač"},"occurrenceDateTime":"2020-06-07","lotNumber":"LI-nKeL","expirationDate":"2020-12-12","site":{"coding":[{"system":"http://snomed.info/sct","code":"244979005","display":"Entire muscle of upper arm"}],"text":"Entire muscle of upper arm"},"route":{"coding":[{"system":"http://snomed.info/sct","code":"78421000","display":"Intramuscular route"}],"text":"Intramuscular route"}}},{"fullUrl":"urn:uuid:a0f54893-f83c-4c23-be04-2306c256a321","resource":{"resourceType":"AllergyIntolerance","id":"a0f54893-f83c-4c23-be04-2306c256a321","meta":{"profile":["http://hl7.eu/fhir/eps/StructureDefinition/allergyIntolerance-eu-eps"]},"text":{"status":"generated","div":"<div xmlns=\"http://www.w3.org/1999/xhtml\"><a name=\"AllergyIntolerance_a0f54893-f83c-4c23-be04-2306c256a321\"> </a><table class=\"hl7__ips\"><tr><td>No known allergies or intolerances</td></tr></table></div>"},"code":{"coding":[{"system":"http://snomed.info/sct","code":"716186003","display":"No known allergy (situation)"}]},"patient":{"reference":"urn:uuid:68971a41-4b4d-45dc-9a30-945bd40c63aa","display":"Mihajel Stamač"},"_onsetDateTime":{"extension":[{"url":"http://hl7.org/fhir/StructureDefinition/data-absent-reason","valueCode":"unknown"}]}}},{"fullUrl":"urn:uuid:faf14dd0-ec38-4f93-a161-9f9779229977","resource":{"resourceType":"CarePlan","id":"faf14dd0-ec38-4f93-a161-9f9779229977","text":{"status":"generated","div":"<div xmlns=\"http://www.w3.org/1999/xhtml\"><a name=\"CarePlan_faf14dd0-ec38-4f93-a161-9f9779229977\"> </a><table class=\"hl7__ips\"><tr><td>Diabetes self management plan</td><td><span class=\"nb\">2021-06-20</span></td><td>Prediabetes</td></tr></table></div>"},"status":"active","intent":"plan","category":[{"coding":[{"system":"http://terminology.hl7.org/CodeSystem/care-plan-category","code":"assess-plan","display":"Assessment and Plan"}]}],"subject":{"reference":"urn:uuid:68971a41-4b4d-45dc-9a30-945bd40c63aa","display":"Mihajel Stamač"},"period":{"start":"2021-06-20"},"activity":[{"detail":{"kind":"appointment","code":{"coding":[{"system":"http://snomed.info/sct","code":"698360004","display":"Diabetes self management plan (qualifier value)"}]},"reasonCode":[{"coding":[{"system":"http://snomed.info/sct","code":"15777000","display":"Prediabetes"}]}],"status":"unknown","description":"Diabetes self management plan"}}]}},{"fullUrl":"urn:uuid:fa952724-ac1f-49de-a7d6-e8a7c1b17ea5","resource":{"resourceType":"Observation","id":"fa952724-ac1f-49de-a7d6-e8a7c1b17ea5","meta":{"profile":["http://hl7.org/fhir/StructureDefinition/vitalsigns"]},"text":{"status":"generated","div":"<div xmlns=\"http://www.w3.org/1999/xhtml\"><a name=\"Observation_fa952724-ac1f-49de-a7d6-e8a7c1b17ea5\"> </a><table class=\"hl7__ips\"><tr><td>Body Height</td><td>181.6 cm</td></tr></table></div>"},"status":"final","category":[{"coding":[{"system":"http://terminology.hl7.org/CodeSystem/observation-category","code":"vital-signs","display":"Vital Signs"}]}],"code":{"coding":[{"system":"http://loinc.org","code":"8302-2","display":"Body Height"}]},"subject":{"reference":"urn:uuid:68971a41-4b4d-45dc-9a30-945bd40c63aa","display":"Mihajel Stamač"},"effectiveDateTime":"2024-06-16","valueQuantity":{"value":181.6,"unit":"cm","code":"cm"}}},{"fullUrl":"urn:uuid:fa0df497-88cf-4da5-8e35-6f5d36a79564","resource":{"resourceType":"Observation","id":"fa0df497-88cf-4da5-8e35-6f5d36a79564","meta":{"profile":["http://hl7.org/fhir/StructureDefinition/vitalsigns"]},"text":{"status":"generated","div":"<div xmlns=\"http://www.w3.org/1999/xhtml\"><a name=\"Observation_fa0df497-88cf-4da5-8e35-6f5d36a79564\"> </a><table class=\"hl7__ips\"><tr><td>Pain severity - 0-10 verbal numeric rating [Score] - Reported</td><td>2 {score}</td></tr></table></div>"},"status":"final","category":[{"coding":[{"system":"http://terminology.hl7.org/CodeSystem/observation-category","code":"vital-signs","display":"Vital Signs"}]}],"code":{"coding":[{"system":"http://loinc.org","code":"72514-3","display":"Pain severity - 0-10 verbal numeric rating [Score] - Reported"}]},"subject":{"reference":"urn:uuid:68971a41-4b4d-45dc-9a30-945bd40c63aa","display":"Mihajel Stamač"},"effectiveDateTime":"2024-06-16","valueQuantity":{"value":2,"unit":"{score}","code":"{score}"}}},{"fullUrl":"urn:uuid:d165f832-0027-47b0-945f-ff19e3e05158","resource":{"resourceType":"Observation","id":"d165f832-0027-47b0-945f-ff19e3e05158","meta":{"profile":["http://hl7.org/fhir/StructureDefinition/vitalsigns"]},"text":{"status":"generated","div":"<div xmlns=\"http://www.w3.org/1999/xhtml\"><a name=\"Observation_d165f832-0027-47b0-945f-ff19e3e05158\"> </a><table class=\"hl7__ips\"><tr><td>Body Weight</td><td>100.1 kg</td></tr></table></div>"},"status":"final","category":[{"coding":[{"system":"http://terminology.hl7.org/CodeSystem/observation-category","code":"vital-signs","display":"Vital Signs"}]}],"code":{"coding":[{"system":"http://loinc.org","code":"29463-7","display":"Body Weight"}]},"subject":{"reference":"urn:uuid:68971a41-4b4d-45dc-9a30-945bd40c63aa","display":"Mihajel Stamač"},"effectiveDateTime":"2024-06-16","valueQuantity":{"value":100.1,"unit":"kg","code":"kg"}}},{"fullUrl":"urn:uuid:d5b064db-6086-4df3-ae5b-5fd6fb12e27e","resource":{"resourceType":"Observation","id":"d5b064db-6086-4df3-ae5b-5fd6fb12e27e","meta":{"profile":["http://hl7.org/fhir/StructureDefinition/vitalsigns"]},"text":{"status":"generated","div":"<div xmlns=\"http://www.w3.org/1999/xhtml\"><a name=\"Observation_d5b064db-6086-4df3-ae5b-5fd6fb12e27e\"> </a><table class=\"hl7__ips\"><tr><td>Body mass index (BMI) [Ratio]</td><td>30.4 kg/m2</td></tr></table></div>"},"status":"final","category":[{"coding":[{"system":"http://terminology.hl7.org/CodeSystem/observation-category","code":"vital-signs","display":"Vital Signs"}]}],"code":{"coding":[{"system":"http://loinc.org","code":"39156-5","display":"Body mass index (BMI) [Ratio]"}]},"subject":{"reference":"urn:uuid:68971a41-4b4d-45dc-9a30-945bd40c63aa","display":"Mihajel Stamač"},"effectiveDateTime":"2024-06-16","valueQuantity":{"value":30.4,"unit":"kg/m2","code":"kg/m2"}}},{"fullUrl":"urn:uuid:0ae831c9-7753-4cd2-9494-5d0ca497425c","resource":{"resourceType":"Observation","id":"0ae831c9-7753-4cd2-9494-5d0ca497425c","meta":{"profile":["http://hl7.org/fhir/StructureDefinition/vitalsigns"]},"text":{"status":"generated","div":"<div xmlns=\"http://www.w3.org/1999/xhtml\"><a name=\"Observation_0ae831c9-7753-4cd2-9494-5d0ca497425c\"> </a><table class=\"hl7__ips\"><tr><td>Diastolic Blood Pressure</td><td>75 mm[Hg]</td></tr></table></div>"},"status":"final","category":[{"coding":[{"system":"http://terminology.hl7.org/CodeSystem/observation-category","code":"vital-signs","display":"Vital Signs"}]}],"code":{"coding":[{"system":"http://loinc.org","code":"8462-4","display":"Diastolic Blood Pressure"}]},"subject":{"reference":"urn:uuid:68971a41-4b4d-45dc-9a30-945bd40c63aa","display":"Mihajel Stamač"},"effectiveDateTime":"2024-06-16","valueQuantity":{"value":75,"unit":"mm[Hg]","code":"mm[Hg]"}}},{"fullUrl":"urn:uuid:4e06abf0-3df2-4d38-9ada-d0e2b4aa2fff","resource":{"resourceType":"Observation","id":"4e06abf0-3df2-4d38-9ada-d0e2b4aa2fff","meta":{"profile":["http://hl7.org/fhir/StructureDefinition/vitalsigns"]},"text":{"status":"generated","div":"<div xmlns=\"http://www.w3.org/1999/xhtml\"><a name=\"Observation_4e06abf0-3df2-4d38-9ada-d0e2b4aa2fff\"> </a><table class=\"hl7__ips\"><tr><td>Systolic Blood Pressure</td><td>120 mm[Hg]</td></tr></table></div>"},"status":"final","category":[{"coding":[{"system":"http://terminology.hl7.org/CodeSystem/observation-category","code":"vital-signs","display":"Vital Signs"}]}],"code":{"coding":[{"system":"http://loinc.org","code":"8480-6","display":"Systolic Blood Pressure"}]},"subject":{"reference":"urn:uuid:68971a41-4b4d-45dc-9a30-945bd40c63aa","display":"Mihajel Stamač"},"effectiveDateTime":"2024-06-16","valueQuantity":{"value":120,"unit":"mm[Hg]","code":"mm[Hg]"}}},{"fullUrl":"urn:uuid:72c1f962-7ffc-4fbb-a132-7bc9af9d9521","resource":{"resourceType":"Observation","id":"72c1f962-7ffc-4fbb-a132-7bc9af9d9521","meta":{"profile":["http://hl7.org/fhir/StructureDefinition/vitalsigns"]},"text":{"status":"generated","div":"<div xmlns=\"http://www.w3.org/1999/xhtml\"><a name=\"Observation_72c1f962-7ffc-4fbb-a132-7bc9af9d9521\"> </a><table class=\"hl7__ips\"><tr><td>Heart rate</td><td>69 /min</td></tr></table></div>"},"status":"final","category":[{"coding":[{"system":"http://terminology.hl7.org/CodeSystem/observation-category","code":"vital-signs","display":"Vital Signs"}]}],"code":{"coding":[{"system":"http://loinc.org","code":"8867-4","display":"Heart rate"}]},"subject":{"reference":"urn:uuid:68971a41-4b4d-45dc-9a30-945bd40c63aa","display":"Mihajel Stamač"},"effectiveDateTime":"2024-06-16","valueQuantity":{"value":69,"unit":"/min","code":"/min"}}},{"fullUrl":"urn:uuid:023de8a3-5f2b-4995-9160-57c8e4225747","resource":{"resourceType":"Observation","id":"023de8a3-5f2b-4995-9160-57c8e4225747","meta":{"profile":["http://hl7.org/fhir/StructureDefinition/vitalsigns"]},"text":{"status":"generated","div":"<div xmlns=\"http://www.w3.org/1999/xhtml\"><a name=\"Observation_023de8a3-5f2b-4995-9160-57c8e4225747\"> </a><table class=\"hl7__ips\"><tr><td>Respiratory rate</td><td>14 /min</td></tr></table></div>"},"status":"final","category":[{"coding":[{"system":"http://terminology.hl7.org/CodeSystem/observation-category","code":"vital-signs","display":"Vital Signs"}]}],"code":{"coding":[{"system":"http://loinc.org","code":"9279-1","display":"Respiratory rate"}]},"subject":{"reference":"urn:uuid:68971a41-4b4d-45dc-9a30-945bd40c63aa","display":"Mihajel Stamač"},"effectiveDateTime":"2024-06-16","valueQuantity":{"value":14,"unit":"/min","code":"/min"}}},{"fullUrl":"urn:uuid:e076d609-3b1a-4797-aee7-a4ef3513c16e","resource":{"resourceType":"Observation","id":"e076d609-3b1a-4797-aee7-a4ef3513c16e","meta":{"profile":["http://hl7.org/fhir/StructureDefinition/vitalsigns"]},"text":{"status":"generated","div":"<div xmlns=\"http://www.w3.org/1999/xhtml\"><a name=\"Observation_e076d609-3b1a-4797-aee7-a4ef3513c16e\"> </a><table class=\"hl7__ips\"><tr><td>Body Height</td><td>181.6 cm</td></tr></table></div>"},"status":"final","category":[{"coding":[{"system":"http://terminology.hl7.org/CodeSystem/observation-category","code":"vital-signs","display":"Vital Signs"}]}],"code":{"coding":[{"system":"http://loinc.org","code":"8302-2","display":"Body Height"}]},"subject":{"reference":"urn:uuid:68971a41-4b4d-45dc-9a30-945bd40c63aa","display":"Mihajel Stamač"},"effectiveDateTime":"2022-06-12","valueQuantity":{"value":181.6,"unit":"cm","code":"cm"}}},{"fullUrl":"urn:uuid:d080778e-7c6e-4950-a593-d2b57c9b7ef4","resource":{"resourceType":"Observation","id":"d080778e-7c6e-4950-a593-d2b57c9b7ef4","meta":{"profile":["http://hl7.org/fhir/StructureDefinition/vitalsigns"]},"text":{"status":"generated","div":"<div xmlns=\"http://www.w3.org/1999/xhtml\"><a name=\"Observation_d080778e-7c6e-4950-a593-d2b57c9b7ef4\"> </a><table class=\"hl7__ips\"><tr><td>Pain severity - 0-10 verbal numeric rating [Score] - Reported</td><td>1 {score}</td></tr></table></div>"},"status":"final","category":[{"coding":[{"system":"http://terminology.hl7.org/CodeSystem/observation-category","code":"vital-signs","display":"Vital Signs"}]}],"code":{"coding":[{"system":"http://loinc.org","code":"72514-3","display":"Pain severity - 0-10 verbal numeric rating [Score] - Reported"}]},"subject":{"reference":"urn:uuid:68971a41-4b4d-45dc-9a30-945bd40c63aa","display":"Mihajel Stamač"},"effectiveDateTime":"2022-06-12","valueQuantity":{"value":1,"unit":"{score}","code":"{score}"}}},{"fullUrl":"urn:uuid:d9f9c151-1c75-4e7c-8544-391e06d985e8","resource":{"resourceType":"Observation","id":"d9f9c151-1c75-4e7c-8544-391e06d985e8","meta":{"profile":["http://hl7.org/fhir/StructureDefinition/vitalsigns"]},"text":{"status":"generated","div":"<div xmlns=\"http://www.w3.org/1999/xhtml\"><a name=\"Observation_d9f9c151-1c75-4e7c-8544-391e06d985e8\"> </a><table class=\"hl7__ips\"><tr><td>Body Weight</td><td>100.1 kg</td></tr></table></div>"},"status":"final","category":[{"coding":[{"system":"http://terminology.hl7.org/CodeSystem/observation-category","code":"vital-signs","display":"Vital Signs"}]}],"code":{"coding":[{"system":"http://loinc.org","code":"29463-7","display":"Body Weight"}]},"subject":{"reference":"urn:uuid:68971a41-4b4d-45dc-9a30-945bd40c63aa","display":"Mihajel Stamač"},"effectiveDateTime":"2022-06-12","valueQuantity":{"value":100.1,"unit":"kg","code":"kg"}}},{"fullUrl":"urn:uuid:5bddab2d-255e-4d4a-a71d-1f689fed58b3","resource":{"resourceType":"Observation","id":"5bddab2d-255e-4d4a-a71d-1f689fed58b3","meta":{"profile":["http://hl7.org/fhir/StructureDefinition/vitalsigns"]},"text":{"status":"generated","div":"<div xmlns=\"http://www.w3.org/1999/xhtml\"><a name=\"Observation_5bddab2d-255e-4d4a-a71d-1f689fed58b3\"> </a><table class=\"hl7__ips\"><tr><td>Body mass index (BMI) [Ratio]</td><td>30.4 kg/m2</td></tr></table></div>"},"status":"final","category":[{"coding":[{"system":"http://terminology.hl7.org/CodeSystem/observation-category","code":"vital-signs","display":"Vital Signs"}]}],"code":{"coding":[{"system":"http://loinc.org","code":"39156-5","display":"Body mass index (BMI) [Ratio]"}]},"subject":{"reference":"urn:uuid:68971a41-4b4d-45dc-9a30-945bd40c63aa","display":"Mihajel Stamač"},"effectiveDateTime":"2022-06-12","valueQuantity":{"value":30.4,"unit":"kg/m2","code":"kg/m2"}}},{"fullUrl":"urn:uuid:69834155-b168-462d-a3db-2ecb639ab8fc","resource":{"resourceType":"Observation","id":"69834155-b168-462d-a3db-2ecb639ab8fc","meta":{"profile":["http://hl7.org/fhir/StructureDefinition/vitalsigns"]},"text":{"status":"generated","div":"<div xmlns=\"http://www.w3.org/1999/xhtml\"><a name=\"Observation_69834155-b168-462d-a3db-2ecb639ab8fc\"> </a><table class=\"hl7__ips\"><tr><td>Diastolic Blood Pressure</td><td>78 mm[Hg]</td></tr></table></div>"},"status":"final","category":[{"coding":[{"system":"http://terminology.hl7.org/CodeSystem/observation-category","code":"vital-signs","display":"Vital Signs"}]}],"code":{"coding":[{"system":"http://loinc.org","code":"8462-4","display":"Diastolic Blood Pressure"}]},"subject":{"reference":"urn:uuid:68971a41-4b4d-45dc-9a30-945bd40c63aa","display":"Mihajel Stamač"},"effectiveDateTime":"2022-06-12","valueQuantity":{"value":78,"unit":"mm[Hg]","code":"mm[Hg]"}}},{"fullUrl":"urn:uuid:12f9740d-8bea-4b59-83bf-45013792d79c","resource":{"resourceType":"Observation","id":"12f9740d-8bea-4b59-83bf-45013792d79c","meta":{"profile":["http://hl7.org/fhir/StructureDefinition/vitalsigns"]},"text":{"status":"generated","div":"<div xmlns=\"http://www.w3.org/1999/xhtml\"><a name=\"Observation_12f9740d-8bea-4b59-83bf-45013792d79c\"> </a><table class=\"hl7__ips\"><tr><td>Systolic Blood Pressure</td><td>113 mm[Hg]</td></tr></table></div>"},"status":"final","category":[{"coding":[{"system":"http://terminology.hl7.org/CodeSystem/observation-category","code":"vital-signs","display":"Vital Signs"}]}],"code":{"coding":[{"system":"http://loinc.org","code":"8480-6","display":"Systolic Blood Pressure"}]},"subject":{"reference":"urn:uuid:68971a41-4b4d-45dc-9a30-945bd40c63aa","display":"Mihajel Stamač"},"effectiveDateTime":"2022-06-12","valueQuantity":{"value":113,"unit":"mm[Hg]","code":"mm[Hg]"}}},{"fullUrl":"urn:uuid:c13d60a4-18fb-41f2-a897-11dc9e127750","resource":{"resourceType":"Observation","id":"c13d60a4-18fb-41f2-a897-11dc9e127750","meta":{"profile":["http://hl7.org/fhir/StructureDefinition/vitalsigns"]},"text":{"status":"generated","div":"<div xmlns=\"http://www.w3.org/1999/xhtml\"><a name=\"Observation_c13d60a4-18fb-41f2-a897-11dc9e127750\"> </a><table class=\"hl7__ips\"><tr><td>Heart rate</td><td>64 /min</td></tr></table></div>"},"status":"final","category":[{"coding":[{"system":"http://terminology.hl7.org/CodeSystem/observation-category","code":"vital-signs","display":"Vital Signs"}]}],"code":{"coding":[{"system":"http://loinc.org","code":"8867-4","display":"Heart rate"}]},"subject":{"reference":"urn:uuid:68971a41-4b4d-45dc-9a30-945bd40c63aa","display":"Mihajel Stamač"},"effectiveDateTime":"2022-06-12","valueQuantity":{"value":64,"unit":"/min","code":"/min"}}},{"fullUrl":"urn:uuid:b6d38647-707a-4605-bc32-73e55de512ca","resource":{"resourceType":"Observation","id":"b6d38647-707a-4605-bc32-73e55de512ca","meta":{"profile":["http://hl7.org/fhir/StructureDefinition/vitalsigns"]},"text":{"status":"generated","div":"<div xmlns=\"http://www.w3.org/1999/xhtml\"><a name=\"Observation_b6d38647-707a-4605-bc32-73e55de512ca\"> </a><table class=\"hl7__ips\"><tr><td>Respiratory rate</td><td>15 /min</td></tr></table></div>"},"status":"final","category":[{"coding":[{"system":"http://terminology.hl7.org/CodeSystem/observation-category","code":"vital-signs","display":"Vital Signs"}]}],"code":{"coding":[{"system":"http://loinc.org","code":"9279-1","display":"Respiratory rate"}]},"subject":{"reference":"urn:uuid:68971a41-4b4d-45dc-9a30-945bd40c63aa","display":"Mihajel Stamač"},"effectiveDateTime":"2022-06-12","valueQuantity":{"value":15,"unit":"/min","code":"/min"}}},{"fullUrl":"urn:uuid:ef10e0d9-ce96-404d-a0b9-b2147289415a","resource":{"resourceType":"Observation","id":"ef10e0d9-ce96-404d-a0b9-b2147289415a","meta":{"profile":["http://hl7.eu/fhir/laboratory/StructureDefinition/Observation-resultslab-eu-lab"]},"text":{"status":"generated","div":"<div xmlns=\"http://www.w3.org/1999/xhtml\"><a name=\"Observation_ef10e0d9-ce96-404d-a0b9-b2147289415a\"> </a><p class=\"res-header-id\"><b>Generated Narrative: Observation ef10e0d9-ce96-404d-a0b9-b2147289415a</b></p><a name=\"ef10e0d9-ce96-404d-a0b9-b2147289415a\"> </a><a name=\"hcef10e0d9-ce96-404d-a0b9-b2147289415a\"> </a><div style=\"display: inline-block; background-color: #d9e0e7; padding: 6px; margin: 4px; border: 1px solid #8da1b4; border-radius: 5px; line-height: 60%\"><p style=\"margin-bottom: 0px\"/><p style=\"margin-bottom: 0px\">Profile: <a href=\"http://hl7.eu/fhir/laboratory/0.1.1/StructureDefinition-Observation-resultslab-eu-lab.html\">Observation Results: laboratory</a></p></div><p><b>status</b>: Final</p><p><b>category</b>: <span title=\"Codes:{http://terminology.hl7.org/CodeSystem/observation-category laboratory}\">Laboratory</span></p><p><b>code</b>: <span title=\"Codes:{http://loinc.org 4548-4}\">Hemoglobin A1c/Hemoglobin.total in Blood</span></p><p><b>subject</b>: <a href=\"Bundle-Instance-Bundle-fd6de626-cd66-4b9b-9d0a-43efe3bad092.html#urn-uuid-68971a41-4b4d-45dc-9a30-945bd40c63aa\">Mihajel Stamač Male, DoB: 1981-02-27 ( Jurisdictional health number)</a></p><p><b>effective</b>: 2024-06-16</p><p><b>performer</b>: The Central European Lab</p><p><b>value</b>: 6.3 %<span style=\"background: LightGoldenRodYellow\"> (Details: UCUM  code4548-4 = '4548-4')</span></p><p><b>interpretation</b>: <span title=\"Codes:{http://terminology.hl7.org/CodeSystem/v3-ObservationInterpretation H}\">High</span></p><h3>ReferenceRanges</h3><table class=\"grid\"><tr><td style=\"display: none\">-</td><td><b>Low</b></td><td><b>High</b></td></tr><tr><td style=\"display: none\">*</td><td>4.8 %<span style=\"background: LightGoldenRodYellow\"> (Details: UCUM  code% = '%')</span></td><td> </td></tr><tr><td style=\"display: none\">*</td><td> </td><td>5.7 %<span style=\"background: LightGoldenRodYellow\"> (Details: UCUM  code% = '%')</span></td></tr></table></div>"},"status":"final","category":[{"coding":[{"system":"http://terminology.hl7.org/CodeSystem/observation-category","code":"laboratory"}]}],"code":{"coding":[{"system":"http://loinc.org","code":"4548-4","display":"Hemoglobin A1c/Hemoglobin.total in Blood"}],"text":"Hemoglobin A1c/Hemoglobin.total in Blood"},"subject":{"reference":"urn:uuid:68971a41-4b4d-45dc-9a30-945bd40c63aa"},"effectiveDateTime":"2024-06-16","performer":[{"display":"The Central European Lab"}],"valueQuantity":{"value":6.3,"unit":"%","system":"http://unitsofmeasure.org","code":"4548-4"},"interpretation":[{"coding":[{"system":"http://terminology.hl7.org/CodeSystem/v3-ObservationInterpretation","code":"H","display":"High"}]}],"referenceRange":[{"low":{"value":4.8,"system":"http://unitsofmeasure.org","code":"%"}},{"high":{"value":5.7,"system":"http://unitsofmeasure.org","code":"%"}}]}},{"fullUrl":"urn:uuid:0f05e342-ca06-4cf9-9470-ceffe45a9230","resource":{"resourceType":"Observation","id":"0f05e342-ca06-4cf9-9470-ceffe45a9230","meta":{"profile":["http://hl7.eu/fhir/laboratory/StructureDefinition/Observation-resultslab-eu-lab"]},"text":{"status":"generated","div":"<div xmlns=\"http://www.w3.org/1999/xhtml\"><a name=\"Observation_0f05e342-ca06-4cf9-9470-ceffe45a9230\"> </a><p class=\"res-header-id\"><b>Generated Narrative: Observation 0f05e342-ca06-4cf9-9470-ceffe45a9230</b></p><a name=\"0f05e342-ca06-4cf9-9470-ceffe45a9230\"> </a><a name=\"hc0f05e342-ca06-4cf9-9470-ceffe45a9230\"> </a><div style=\"display: inline-block; background-color: #d9e0e7; padding: 6px; margin: 4px; border: 1px solid #8da1b4; border-radius: 5px; line-height: 60%\"><p style=\"margin-bottom: 0px\"/><p style=\"margin-bottom: 0px\">Profile: <a href=\"http://hl7.eu/fhir/laboratory/0.1.1/StructureDefinition-Observation-resultslab-eu-lab.html\">Observation Results: laboratory</a></p></div><p><b>status</b>: Final</p><p><b>category</b>: <span title=\"Codes:{http://terminology.hl7.org/CodeSystem/observation-category laboratory}\">Laboratory</span></p><p><b>code</b>: <span title=\"Codes:{http://loinc.org 2339-0}\">Glucose [Mass/volume] in Blood</span></p><p><b>subject</b>: <a href=\"Bundle-Instance-Bundle-fd6de626-cd66-4b9b-9d0a-43efe3bad092.html#urn-uuid-68971a41-4b4d-45dc-9a30-945bd40c63aa\">Mihajel Stamač Male, DoB: 1981-02-27 ( Jurisdictional health number)</a></p><p><b>effective</b>: 2024-06-16</p><p><b>performer</b>: The Central European Lab</p><p><b>value</b>: 92.5 mg/dL<span style=\"background: LightGoldenRodYellow\"> (Details: UCUM  code2339-0 = '2339-0')</span></p><h3>ReferenceRanges</h3><table class=\"grid\"><tr><td style=\"display: none\">-</td><td><b>Low</b></td><td><b>High</b></td></tr><tr><td style=\"display: none\">*</td><td>70 mg/dL<span style=\"background: LightGoldenRodYellow\"> (Details: UCUM  codemg/dL = 'mg/dL')</span></td><td> </td></tr><tr><td style=\"display: none\">*</td><td> </td><td>100 mg/dL<span style=\"background: LightGoldenRodYellow\"> (Details: UCUM  codemg/dL = 'mg/dL')</span></td></tr></table></div>"},"status":"final","category":[{"coding":[{"system":"http://terminology.hl7.org/CodeSystem/observation-category","code":"laboratory"}]}],"code":{"coding":[{"system":"http://loinc.org","code":"2339-0","display":"Glucose [Mass/volume] in Blood"}],"text":"Glucose [Mass/volume] in Blood"},"subject":{"reference":"urn:uuid:68971a41-4b4d-45dc-9a30-945bd40c63aa"},"effectiveDateTime":"2024-06-16","performer":[{"display":"The Central European Lab"}],"valueQuantity":{"value":92.5,"unit":"mg/dL","system":"http://unitsofmeasure.org","code":"2339-0"},"referenceRange":[{"low":{"value":70,"system":"http://unitsofmeasure.org","code":"mg/dL"}},{"high":{"value":100,"system":"http://unitsofmeasure.org","code":"mg/dL"}}]}},{"fullUrl":"urn:uuid:c6b261ce-e3ee-4616-8a8d-79c138d18700","resource":{"resourceType":"Observation","id":"c6b261ce-e3ee-4616-8a8d-79c138d18700","meta":{"profile":["http://hl7.eu/fhir/laboratory/StructureDefinition/Observation-resultslab-eu-lab"]},"text":{"status":"generated","div":"<div xmlns=\"http://www.w3.org/1999/xhtml\"><a name=\"Observation_c6b261ce-e3ee-4616-8a8d-79c138d18700\"> </a><p class=\"res-header-id\"><b>Generated Narrative: Observation c6b261ce-e3ee-4616-8a8d-79c138d18700</b></p><a name=\"c6b261ce-e3ee-4616-8a8d-79c138d18700\"> </a><a name=\"hcc6b261ce-e3ee-4616-8a8d-79c138d18700\"> </a><div style=\"display: inline-block; background-color: #d9e0e7; padding: 6px; margin: 4px; border: 1px solid #8da1b4; border-radius: 5px; line-height: 60%\"><p style=\"margin-bottom: 0px\"/><p style=\"margin-bottom: 0px\">Profile: <a href=\"http://hl7.eu/fhir/laboratory/0.1.1/StructureDefinition-Observation-resultslab-eu-lab.html\">Observation Results: laboratory</a></p></div><p><b>status</b>: Final</p><p><b>category</b>: <span title=\"Codes:{http://terminology.hl7.org/CodeSystem/observation-category laboratory}\">Laboratory</span></p><p><b>code</b>: <span title=\"Codes:{http://loinc.org 6299-2}\">Urea nitrogen [Mass/volume] in Blood</span></p><p><b>subject</b>: <a href=\"Bundle-Instance-Bundle-fd6de626-cd66-4b9b-9d0a-43efe3bad092.html#urn-uuid-68971a41-4b4d-45dc-9a30-945bd40c63aa\">Mihajel Stamač Male, DoB: 1981-02-27 ( Jurisdictional health number)</a></p><p><b>effective</b>: 2024-06-16</p><p><b>performer</b>: The Central European Lab</p><p><b>value</b>: 19.9 mg/dL<span style=\"background: LightGoldenRodYellow\"> (Details: UCUM  code6299-2 = '6299-2')</span></p><h3>ReferenceRanges</h3><table class=\"grid\"><tr><td style=\"display: none\">-</td><td><b>Low</b></td><td><b>High</b></td></tr><tr><td style=\"display: none\">*</td><td>7 mg/dL<span style=\"background: LightGoldenRodYellow\"> (Details: UCUM  codemg/dL = 'mg/dL')</span></td><td> </td></tr><tr><td style=\"display: none\">*</td><td> </td><td>50 mg/dL<span style=\"background: LightGoldenRodYellow\"> (Details: UCUM  codemg/dL = 'mg/dL')</span></td></tr></table></div>"},"status":"final","category":[{"coding":[{"system":"http://terminology.hl7.org/CodeSystem/observation-category","code":"laboratory"}]}],"code":{"coding":[{"system":"http://loinc.org","code":"6299-2","display":"Urea nitrogen [Mass/volume] in Blood"}],"text":"Urea nitrogen [Mass/volume] in Blood"},"subject":{"reference":"urn:uuid:68971a41-4b4d-45dc-9a30-945bd40c63aa"},"effectiveDateTime":"2024-06-16","performer":[{"display":"The Central European Lab"}],"valueQuantity":{"value":19.9,"unit":"mg/dL","system":"http://unitsofmeasure.org","code":"6299-2"},"referenceRange":[{"low":{"value":7,"system":"http://unitsofmeasure.org","code":"mg/dL"}},{"high":{"value":50,"system":"http://unitsofmeasure.org","code":"mg/dL"}}]}},{"fullUrl":"urn:uuid:e8c17eee-6194-4155-b4fd-f701e151eef5","resource":{"resourceType":"Observation","id":"e8c17eee-6194-4155-b4fd-f701e151eef5","meta":{"profile":["http://hl7.eu/fhir/laboratory/StructureDefinition/Observation-resultslab-eu-lab"]},"text":{"status":"generated","div":"<div xmlns=\"http://www.w3.org/1999/xhtml\"><a name=\"Observation_e8c17eee-6194-4155-b4fd-f701e151eef5\"> </a><p class=\"res-header-id\"><b>Generated Narrative: Observation e8c17eee-6194-4155-b4fd-f701e151eef5</b></p><a name=\"e8c17eee-6194-4155-b4fd-f701e151eef5\"> </a><a name=\"hce8c17eee-6194-4155-b4fd-f701e151eef5\"> </a><div style=\"display: inline-block; background-color: #d9e0e7; padding: 6px; margin: 4px; border: 1px solid #8da1b4; border-radius: 5px; line-height: 60%\"><p style=\"margin-bottom: 0px\"/><p style=\"margin-bottom: 0px\">Profile: <a href=\"http://hl7.eu/fhir/laboratory/0.1.1/StructureDefinition-Observation-resultslab-eu-lab.html\">Observation Results: laboratory</a></p></div><p><b>status</b>: Final</p><p><b>category</b>: <span title=\"Codes:{http://terminology.hl7.org/CodeSystem/observation-category laboratory}\">Laboratory</span></p><p><b>code</b>: <span title=\"Codes:{http://loinc.org 38483-4}\">Creatinine [Mass/volume] in Blood</span></p><p><b>subject</b>: <a href=\"Bundle-Instance-Bundle-fd6de626-cd66-4b9b-9d0a-43efe3bad092.html#urn-uuid-68971a41-4b4d-45dc-9a30-945bd40c63aa\">Mihajel Stamač Male, DoB: 1981-02-27 ( Jurisdictional health number)</a></p><p><b>effective</b>: 2024-06-16</p><p><b>performer</b>: The Central European Lab</p><p><b>value</b>: 1.6 mg/dL<span style=\"background: LightGoldenRodYellow\"> (Details: UCUM  code38483-4 = '38483-4')</span></p><p><b>interpretation</b>: <span title=\"Codes:{http://terminology.hl7.org/CodeSystem/v3-ObservationInterpretation H}\">High</span></p><h3>ReferenceRanges</h3><table class=\"grid\"><tr><td style=\"display: none\">-</td><td><b>Low</b></td><td><b>High</b></td></tr><tr><td style=\"display: none\">*</td><td>0.9 mg/dL<span style=\"background: LightGoldenRodYellow\"> (Details: UCUM  codemg/dL = 'mg/dL')</span></td><td> </td></tr><tr><td style=\"display: none\">*</td><td> </td><td>1.3 mg/dL<span style=\"background: LightGoldenRodYellow\"> (Details: UCUM  codemg/dL = 'mg/dL')</span></td></tr></table></div>"},"status":"final","category":[{"coding":[{"system":"http://terminology.hl7.org/CodeSystem/observation-category","code":"laboratory"}]}],"code":{"coding":[{"system":"http://loinc.org","code":"38483-4","display":"Creatinine [Mass/volume] in Blood"}],"text":"Creatinine [Mass/volume] in Blood"},"subject":{"reference":"urn:uuid:68971a41-4b4d-45dc-9a30-945bd40c63aa"},"effectiveDateTime":"2024-06-16","performer":[{"display":"The Central European Lab"}],"valueQuantity":{"value":1.6,"unit":"mg/dL","system":"http://unitsofmeasure.org","code":"38483-4"},"interpretation":[{"coding":[{"system":"http://terminology.hl7.org/CodeSystem/v3-ObservationInterpretation","code":"H","display":"High"}]}],"referenceRange":[{"low":{"value":0.9,"system":"http://unitsofmeasure.org","code":"mg/dL"}},{"high":{"value":1.3,"system":"http://unitsofmeasure.org","code":"mg/dL"}}]}},{"fullUrl":"urn:uuid:a40545f6-cbb0-48fa-99e6-22f02a75c58d","resource":{"resourceType":"Observation","id":"a40545f6-cbb0-48fa-99e6-22f02a75c58d","meta":{"profile":["http://hl7.eu/fhir/laboratory/StructureDefinition/Observation-resultslab-eu-lab"]},"text":{"status":"generated","div":"<div xmlns=\"http://www.w3.org/1999/xhtml\"><a name=\"Observation_a40545f6-cbb0-48fa-99e6-22f02a75c58d\"> </a><p class=\"res-header-id\"><b>Generated Narrative: Observation a40545f6-cbb0-48fa-99e6-22f02a75c58d</b></p><a name=\"a40545f6-cbb0-48fa-99e6-22f02a75c58d\"> </a><a name=\"hca40545f6-cbb0-48fa-99e6-22f02a75c58d\"> </a><div style=\"display: inline-block; background-color: #d9e0e7; padding: 6px; margin: 4px; border: 1px solid #8da1b4; border-radius: 5px; line-height: 60%\"><p style=\"margin-bottom: 0px\"/><p style=\"margin-bottom: 0px\">Profile: <a href=\"http://hl7.eu/fhir/laboratory/0.1.1/StructureDefinition-Observation-resultslab-eu-lab.html\">Observation Results: laboratory</a></p></div><p><b>status</b>: Final</p><p><b>category</b>: <span title=\"Codes:{http://terminology.hl7.org/CodeSystem/observation-category laboratory}\">Laboratory</span></p><p><b>code</b>: <span title=\"Codes:{http://loinc.org 49765-1}\">Calcium [Mass/volume] in Blood</span></p><p><b>subject</b>: <a href=\"Bundle-Instance-Bundle-fd6de626-cd66-4b9b-9d0a-43efe3bad092.html#urn-uuid-68971a41-4b4d-45dc-9a30-945bd40c63aa\">Mihajel Stamač Male, DoB: 1981-02-27 ( Jurisdictional health number)</a></p><p><b>effective</b>: 2024-06-16</p><p><b>performer</b>: The Central European Lab</p><p><b>value</b>: 8.5 mg/dL<span style=\"background: LightGoldenRodYellow\"> (Details: UCUM  code49765-1 = '49765-1')</span></p><h3>ReferenceRanges</h3><table class=\"grid\"><tr><td style=\"display: none\">-</td><td><b>Low</b></td><td><b>High</b></td></tr><tr><td style=\"display: none\">*</td><td>8.5 mg/dL<span style=\"background: LightGoldenRodYellow\"> (Details: UCUM  codemg/dL = 'mg/dL')</span></td><td> </td></tr><tr><td style=\"display: none\">*</td><td> </td><td>10.5 mg/dL<span style=\"background: LightGoldenRodYellow\"> (Details: UCUM  codemg/dL = 'mg/dL')</span></td></tr></table></div>"},"status":"final","category":[{"coding":[{"system":"http://terminology.hl7.org/CodeSystem/observation-category","code":"laboratory"}]}],"code":{"coding":[{"system":"http://loinc.org","code":"49765-1","display":"Calcium [Mass/volume] in Blood"}],"text":"Calcium [Mass/volume] in Blood"},"subject":{"reference":"urn:uuid:68971a41-4b4d-45dc-9a30-945bd40c63aa"},"effectiveDateTime":"2024-06-16","performer":[{"display":"The Central European Lab"}],"valueQuantity":{"value":8.5,"unit":"mg/dL","system":"http://unitsofmeasure.org","code":"49765-1"},"referenceRange":[{"low":{"value":8.5,"system":"http://unitsofmeasure.org","code":"mg/dL"}},{"high":{"value":10.5,"system":"http://unitsofmeasure.org","code":"mg/dL"}}]}},{"fullUrl":"urn:uuid:7b59ff3d-0153-4257-bff2-2325265a5fe5","resource":{"resourceType":"Observation","id":"7b59ff3d-0153-4257-bff2-2325265a5fe5","meta":{"profile":["http://hl7.eu/fhir/laboratory/StructureDefinition/Observation-resultslab-eu-lab"]},"text":{"status":"generated","div":"<div xmlns=\"http://www.w3.org/1999/xhtml\"><a name=\"Observation_7b59ff3d-0153-4257-bff2-2325265a5fe5\"> </a><p class=\"res-header-id\"><b>Generated Narrative: Observation 7b59ff3d-0153-4257-bff2-2325265a5fe5</b></p><a name=\"7b59ff3d-0153-4257-bff2-2325265a5fe5\"> </a><a name=\"hc7b59ff3d-0153-4257-bff2-2325265a5fe5\"> </a><div style=\"display: inline-block; background-color: #d9e0e7; padding: 6px; margin: 4px; border: 1px solid #8da1b4; border-radius: 5px; line-height: 60%\"><p style=\"margin-bottom: 0px\"/><p style=\"margin-bottom: 0px\">Profile: <a href=\"http://hl7.eu/fhir/laboratory/0.1.1/StructureDefinition-Observation-resultslab-eu-lab.html\">Observation Results: laboratory</a></p></div><p><b>status</b>: Final</p><p><b>category</b>: <span title=\"Codes:{http://terminology.hl7.org/CodeSystem/observation-category laboratory}\">Laboratory</span></p><p><b>code</b>: <span title=\"Codes:{http://loinc.org 2947-0}\">Sodium [Moles/volume] in Blood</span></p><p><b>subject</b>: <a href=\"Bundle-Instance-Bundle-fd6de626-cd66-4b9b-9d0a-43efe3bad092.html#urn-uuid-68971a41-4b4d-45dc-9a30-945bd40c63aa\">Mihajel Stamač Male, DoB: 1981-02-27 ( Jurisdictional health number)</a></p><p><b>effective</b>: 2024-06-16</p><p><b>performer</b>: The Central European Lab</p><p><b>value</b>: 143.5 mmol/L<span style=\"background: LightGoldenRodYellow\"> (Details: UCUM  code2947-0 = '2947-0')</span></p><h3>ReferenceRanges</h3><table class=\"grid\"><tr><td style=\"display: none\">-</td><td><b>Low</b></td><td><b>High</b></td></tr><tr><td style=\"display: none\">*</td><td>135 mmol/L<span style=\"background: LightGoldenRodYellow\"> (Details: UCUM  codemmol/L = 'mmol/L')</span></td><td> </td></tr><tr><td style=\"display: none\">*</td><td> </td><td>145 mmol/L<span style=\"background: LightGoldenRodYellow\"> (Details: UCUM  codemmol/L = 'mmol/L')</span></td></tr></table></div>"},"status":"final","category":[{"coding":[{"system":"http://terminology.hl7.org/CodeSystem/observation-category","code":"laboratory"}]}],"code":{"coding":[{"system":"http://loinc.org","code":"2947-0","display":"Sodium [Moles/volume] in Blood"}],"text":"Sodium [Moles/volume] in Blood"},"subject":{"reference":"urn:uuid:68971a41-4b4d-45dc-9a30-945bd40c63aa"},"effectiveDateTime":"2024-06-16","performer":[{"display":"The Central European Lab"}],"valueQuantity":{"value":143.5,"unit":"mmol/L","system":"http://unitsofmeasure.org","code":"2947-0"},"referenceRange":[{"low":{"value":135,"system":"http://unitsofmeasure.org","code":"mmol/L"}},{"high":{"value":145,"system":"http://unitsofmeasure.org","code":"mmol/L"}}]}},{"fullUrl":"urn:uuid:9a6e7ef1-9bee-4a14-9e09-acd4444fb6a7","resource":{"resourceType":"Observation","id":"9a6e7ef1-9bee-4a14-9e09-acd4444fb6a7","meta":{"profile":["http://hl7.eu/fhir/laboratory/StructureDefinition/Observation-resultslab-eu-lab"]},"text":{"status":"generated","div":"<div xmlns=\"http://www.w3.org/1999/xhtml\"><a name=\"Observation_9a6e7ef1-9bee-4a14-9e09-acd4444fb6a7\"> </a><p class=\"res-header-id\"><b>Generated Narrative: Observation 9a6e7ef1-9bee-4a14-9e09-acd4444fb6a7</b></p><a name=\"9a6e7ef1-9bee-4a14-9e09-acd4444fb6a7\"> </a><a name=\"hc9a6e7ef1-9bee-4a14-9e09-acd4444fb6a7\"> </a><div style=\"display: inline-block; background-color: #d9e0e7; padding: 6px; margin: 4px; border: 1px solid #8da1b4; border-radius: 5px; line-height: 60%\"><p style=\"margin-bottom: 0px\"/><p style=\"margin-bottom: 0px\">Profile: <a href=\"http://hl7.eu/fhir/laboratory/0.1.1/StructureDefinition-Observation-resultslab-eu-lab.html\">Observation Results: laboratory</a></p></div><p><b>status</b>: Final</p><p><b>category</b>: <span title=\"Codes:{http://terminology.hl7.org/CodeSystem/observation-category laboratory}\">Laboratory</span></p><p><b>code</b>: <span title=\"Codes:{http://loinc.org 6298-4}\">Potassium [Moles/volume] in Blood</span></p><p><b>subject</b>: <a href=\"Bundle-Instance-Bundle-fd6de626-cd66-4b9b-9d0a-43efe3bad092.html#urn-uuid-68971a41-4b4d-45dc-9a30-945bd40c63aa\">Mihajel Stamač Male, DoB: 1981-02-27 ( Jurisdictional health number)</a></p><p><b>effective</b>: 2024-06-16</p><p><b>performer</b>: The Central European Lab</p><p><b>value</b>: 5 mmol/L<span style=\"background: LightGoldenRodYellow\"> (Details: UCUM  code6298-4 = '6298-4')</span></p><h3>ReferenceRanges</h3><table class=\"grid\"><tr><td style=\"display: none\">-</td><td><b>Low</b></td><td><b>High</b></td></tr><tr><td style=\"display: none\">*</td><td>3.5 mmol/L<span style=\"background: LightGoldenRodYellow\"> (Details: UCUM  codemmol/L = 'mmol/L')</span></td><td> </td></tr><tr><td style=\"display: none\">*</td><td> </td><td>5.3 mmol/L<span style=\"background: LightGoldenRodYellow\"> (Details: UCUM  codemmol/L = 'mmol/L')</span></td></tr></table></div>"},"status":"final","category":[{"coding":[{"system":"http://terminology.hl7.org/CodeSystem/observation-category","code":"laboratory"}]}],"code":{"coding":[{"system":"http://loinc.org","code":"6298-4","display":"Potassium [Moles/volume] in Blood"}],"text":"Potassium [Moles/volume] in Blood"},"subject":{"reference":"urn:uuid:68971a41-4b4d-45dc-9a30-945bd40c63aa"},"effectiveDateTime":"2024-06-16","performer":[{"display":"The Central European Lab"}],"valueQuantity":{"value":5,"unit":"mmol/L","system":"http://unitsofmeasure.org","code":"6298-4"},"referenceRange":[{"low":{"value":3.5,"system":"http://unitsofmeasure.org","code":"mmol/L"}},{"high":{"value":5.3,"system":"http://unitsofmeasure.org","code":"mmol/L"}}]}},{"fullUrl":"urn:uuid:ae7030c5-b296-4989-a595-4524732ed7e3","resource":{"resourceType":"Observation","id":"ae7030c5-b296-4989-a595-4524732ed7e3","meta":{"profile":["http://hl7.eu/fhir/laboratory/StructureDefinition/Observation-resultslab-eu-lab"]},"text":{"status":"generated","div":"<div xmlns=\"http://www.w3.org/1999/xhtml\"><a name=\"Observation_ae7030c5-b296-4989-a595-4524732ed7e3\"> </a><p class=\"res-header-id\"><b>Generated Narrative: Observation ae7030c5-b296-4989-a595-4524732ed7e3</b></p><a name=\"ae7030c5-b296-4989-a595-4524732ed7e3\"> </a><a name=\"hcae7030c5-b296-4989-a595-4524732ed7e3\"> </a><div style=\"display: inline-block; background-color: #d9e0e7; padding: 6px; margin: 4px; border: 1px solid #8da1b4; border-radius: 5px; line-height: 60%\"><p style=\"margin-bottom: 0px\"/><p style=\"margin-bottom: 0px\">Profile: <a href=\"http://hl7.eu/fhir/laboratory/0.1.1/StructureDefinition-Observation-resultslab-eu-lab.html\">Observation Results: laboratory</a></p></div><p><b>status</b>: Final</p><p><b>category</b>: <span title=\"Codes:{http://terminology.hl7.org/CodeSystem/observation-category laboratory}\">Laboratory</span></p><p><b>code</b>: <span title=\"Codes:{http://loinc.org 2069-3}\">Chloride [Moles/volume] in Blood</span></p><p><b>subject</b>: <a href=\"Bundle-Instance-Bundle-fd6de626-cd66-4b9b-9d0a-43efe3bad092.html#urn-uuid-68971a41-4b4d-45dc-9a30-945bd40c63aa\">Mihajel Stamač Male, DoB: 1981-02-27 ( Jurisdictional health number)</a></p><p><b>effective</b>: 2024-06-16</p><p><b>performer</b>: The Central European Lab</p><p><b>value</b>: 103.3 mmol/L<span style=\"background: LightGoldenRodYellow\"> (Details: UCUM  code2069-3 = '2069-3')</span></p><h3>ReferenceRanges</h3><table class=\"grid\"><tr><td style=\"display: none\">-</td><td><b>Low</b></td><td><b>High</b></td></tr><tr><td style=\"display: none\">*</td><td>98 mmol/L<span style=\"background: LightGoldenRodYellow\"> (Details: UCUM  codemmol/L = 'mmol/L')</span></td><td> </td></tr><tr><td style=\"display: none\">*</td><td> </td><td>107 mmol/L<span style=\"background: LightGoldenRodYellow\"> (Details: UCUM  codemmol/L = 'mmol/L')</span></td></tr></table></div>"},"status":"final","category":[{"coding":[{"system":"http://terminology.hl7.org/CodeSystem/observation-category","code":"laboratory"}]}],"code":{"coding":[{"system":"http://loinc.org","code":"2069-3","display":"Chloride [Moles/volume] in Blood"}],"text":"Chloride [Moles/volume] in Blood"},"subject":{"reference":"urn:uuid:68971a41-4b4d-45dc-9a30-945bd40c63aa"},"effectiveDateTime":"2024-06-16","performer":[{"display":"The Central European Lab"}],"valueQuantity":{"value":103.3,"unit":"mmol/L","system":"http://unitsofmeasure.org","code":"2069-3"},"referenceRange":[{"low":{"value":98,"system":"http://unitsofmeasure.org","code":"mmol/L"}},{"high":{"value":107,"system":"http://unitsofmeasure.org","code":"mmol/L"}}]}},{"fullUrl":"urn:uuid:d1f2084c-96ba-4841-aa57-8b59851bf068","resource":{"resourceType":"Observation","id":"d1f2084c-96ba-4841-aa57-8b59851bf068","meta":{"profile":["http://hl7.eu/fhir/laboratory/StructureDefinition/Observation-resultslab-eu-lab"]},"text":{"status":"generated","div":"<div xmlns=\"http://www.w3.org/1999/xhtml\"><a name=\"Observation_d1f2084c-96ba-4841-aa57-8b59851bf068\"> </a><p class=\"res-header-id\"><b>Generated Narrative: Observation d1f2084c-96ba-4841-aa57-8b59851bf068</b></p><a name=\"d1f2084c-96ba-4841-aa57-8b59851bf068\"> </a><a name=\"hcd1f2084c-96ba-4841-aa57-8b59851bf068\"> </a><div style=\"display: inline-block; background-color: #d9e0e7; padding: 6px; margin: 4px; border: 1px solid #8da1b4; border-radius: 5px; line-height: 60%\"><p style=\"margin-bottom: 0px\"/><p style=\"margin-bottom: 0px\">Profile: <a href=\"http://hl7.eu/fhir/laboratory/0.1.1/StructureDefinition-Observation-resultslab-eu-lab.html\">Observation Results: laboratory</a></p></div><p><b>status</b>: Final</p><p><b>category</b>: <span title=\"Codes:{http://terminology.hl7.org/CodeSystem/observation-category laboratory}\">Laboratory</span></p><p><b>code</b>: <span title=\"Codes:{http://loinc.org 20565-8}\">Carbon dioxide, total [Moles/volume] in Blood</span></p><p><b>subject</b>: <a href=\"Bundle-Instance-Bundle-fd6de626-cd66-4b9b-9d0a-43efe3bad092.html#urn-uuid-68971a41-4b4d-45dc-9a30-945bd40c63aa\">Mihajel Stamač Male, DoB: 1981-02-27 ( Jurisdictional health number)</a></p><p><b>effective</b>: 2024-06-16</p><p><b>performer</b>: The Central European Lab</p><p><b>value</b>: 20.3 mmol/L<span style=\"background: LightGoldenRodYellow\"> (Details: UCUM  code20565-8 = '20565-8')</span></p><p><b>interpretation</b>: <span title=\"Codes:{http://terminology.hl7.org/CodeSystem/v3-ObservationInterpretation L}\">Low</span></p><h3>ReferenceRanges</h3><table class=\"grid\"><tr><td style=\"display: none\">-</td><td><b>Low</b></td><td><b>High</b></td></tr><tr><td style=\"display: none\">*</td><td>22 mmol/L<span style=\"background: LightGoldenRodYellow\"> (Details: UCUM  codemmol/L = 'mmol/L')</span></td><td> </td></tr><tr><td style=\"display: none\">*</td><td> </td><td>29 mmol/L<span style=\"background: LightGoldenRodYellow\"> (Details: UCUM  codemmol/L = 'mmol/L')</span></td></tr></table></div>"},"status":"final","category":[{"coding":[{"system":"http://terminology.hl7.org/CodeSystem/observation-category","code":"laboratory"}]}],"code":{"coding":[{"system":"http://loinc.org","code":"20565-8","display":"Carbon dioxide, total [Moles/volume] in Blood"}],"text":"Carbon dioxide, total [Moles/volume] in Blood"},"subject":{"reference":"urn:uuid:68971a41-4b4d-45dc-9a30-945bd40c63aa"},"effectiveDateTime":"2024-06-16","performer":[{"display":"The Central European Lab"}],"valueQuantity":{"value":20.3,"unit":"mmol/L","system":"http://unitsofmeasure.org","code":"20565-8"},"interpretation":[{"coding":[{"system":"http://terminology.hl7.org/CodeSystem/v3-ObservationInterpretation","code":"L","display":"Low"}]}],"referenceRange":[{"low":{"value":22,"system":"http://unitsofmeasure.org","code":"mmol/L"}},{"high":{"value":29,"system":"http://unitsofmeasure.org","code":"mmol/L"}}]}},{"fullUrl":"urn:uuid:390833fa-12d8-4af3-b82f-f65941232359","resource":{"resourceType":"Observation","id":"390833fa-12d8-4af3-b82f-f65941232359","meta":{"profile":["http://hl7.eu/fhir/laboratory/StructureDefinition/Observation-resultslab-eu-lab"]},"text":{"status":"generated","div":"<div xmlns=\"http://www.w3.org/1999/xhtml\"><a name=\"Observation_390833fa-12d8-4af3-b82f-f65941232359\"> </a><p class=\"res-header-id\"><b>Generated Narrative: Observation 390833fa-12d8-4af3-b82f-f65941232359</b></p><a name=\"390833fa-12d8-4af3-b82f-f65941232359\"> </a><a name=\"hc390833fa-12d8-4af3-b82f-f65941232359\"> </a><div style=\"display: inline-block; background-color: #d9e0e7; padding: 6px; margin: 4px; border: 1px solid #8da1b4; border-radius: 5px; line-height: 60%\"><p style=\"margin-bottom: 0px\"/><p style=\"margin-bottom: 0px\">Profile: <a href=\"http://hl7.eu/fhir/laboratory/0.1.1/StructureDefinition-Observation-resultslab-eu-lab.html\">Observation Results: laboratory</a></p></div><p><b>status</b>: Final</p><p><b>category</b>: <span title=\"Codes:{http://terminology.hl7.org/CodeSystem/observation-category laboratory}\">Laboratory</span></p><p><b>code</b>: <span title=\"Codes:{http://loinc.org 2093-3}\">Cholesterol [Mass/volume] in Serum or Plasma</span></p><p><b>subject</b>: <a href=\"Bundle-Instance-Bundle-fd6de626-cd66-4b9b-9d0a-43efe3bad092.html#urn-uuid-68971a41-4b4d-45dc-9a30-945bd40c63aa\">Mihajel Stamač Male, DoB: 1981-02-27 ( Jurisdictional health number)</a></p><p><b>effective</b>: 2024-06-16</p><p><b>performer</b>: The Central European Lab</p><p><b>value</b>: 211.5 mg/dL<span style=\"background: LightGoldenRodYellow\"> (Details: UCUM  code2093-3 = '2093-3')</span></p><p><b>interpretation</b>: <span title=\"Codes:{http://terminology.hl7.org/CodeSystem/v3-ObservationInterpretation H}\">High</span></p><h3>ReferenceRanges</h3><table class=\"grid\"><tr><td style=\"display: none\">-</td><td><b>Low</b></td><td><b>High</b></td></tr><tr><td style=\"display: none\">*</td><td>0 mg/dL<span style=\"background: LightGoldenRodYellow\"> (Details: UCUM  codemg/dL = 'mg/dL')</span></td><td> </td></tr><tr><td style=\"display: none\">*</td><td> </td><td>200 mg/dL<span style=\"background: LightGoldenRodYellow\"> (Details: UCUM  codemg/dL = 'mg/dL')</span></td></tr></table></div>"},"status":"final","category":[{"coding":[{"system":"http://terminology.hl7.org/CodeSystem/observation-category","code":"laboratory"}]}],"code":{"coding":[{"system":"http://loinc.org","code":"2093-3","display":"Cholesterol [Mass/volume] in Serum or Plasma"}],"text":"Cholesterol [Mass/volume] in Serum or Plasma"},"subject":{"reference":"urn:uuid:68971a41-4b4d-45dc-9a30-945bd40c63aa"},"effectiveDateTime":"2024-06-16","performer":[{"display":"The Central European Lab"}],"valueQuantity":{"value":211.5,"unit":"mg/dL","system":"http://unitsofmeasure.org","code":"2093-3"},"interpretation":[{"coding":[{"system":"http://terminology.hl7.org/CodeSystem/v3-ObservationInterpretation","code":"H","display":"High"}]}],"referenceRange":[{"low":{"value":0,"system":"http://unitsofmeasure.org","code":"mg/dL"}},{"high":{"value":200,"system":"http://unitsofmeasure.org","code":"mg/dL"}}]}},{"fullUrl":"urn:uuid:3e7ada38-cfb8-46bd-81a3-d1745f9fe151","resource":{"resourceType":"Observation","id":"3e7ada38-cfb8-46bd-81a3-d1745f9fe151","meta":{"profile":["http://hl7.eu/fhir/laboratory/StructureDefinition/Observation-resultslab-eu-lab"]},"text":{"status":"generated","div":"<div xmlns=\"http://www.w3.org/1999/xhtml\"><a name=\"Observation_3e7ada38-cfb8-46bd-81a3-d1745f9fe151\"> </a><p class=\"res-header-id\"><b>Generated Narrative: Observation 3e7ada38-cfb8-46bd-81a3-d1745f9fe151</b></p><a name=\"3e7ada38-cfb8-46bd-81a3-d1745f9fe151\"> </a><a name=\"hc3e7ada38-cfb8-46bd-81a3-d1745f9fe151\"> </a><div style=\"display: inline-block; background-color: #d9e0e7; padding: 6px; margin: 4px; border: 1px solid #8da1b4; border-radius: 5px; line-height: 60%\"><p style=\"margin-bottom: 0px\"/><p style=\"margin-bottom: 0px\">Profile: <a href=\"http://hl7.eu/fhir/laboratory/0.1.1/StructureDefinition-Observation-resultslab-eu-lab.html\">Observation Results: laboratory</a></p></div><p><b>status</b>: Final</p><p><b>category</b>: <span title=\"Codes:{http://terminology.hl7.org/CodeSystem/observation-category laboratory}\">Laboratory</span></p><p><b>code</b>: <span title=\"Codes:{http://loinc.org 2571-8}\">Triglyceride [Mass/volume] in Serum or Plasma</span></p><p><b>subject</b>: <a href=\"Bundle-Instance-Bundle-fd6de626-cd66-4b9b-9d0a-43efe3bad092.html#urn-uuid-68971a41-4b4d-45dc-9a30-945bd40c63aa\">Mihajel Stamač Male, DoB: 1981-02-27 ( Jurisdictional health number)</a></p><p><b>effective</b>: 2024-06-16</p><p><b>performer</b>: The Central European Lab</p><p><b>value</b>: 108.5 mg/dL<span style=\"background: LightGoldenRodYellow\"> (Details: UCUM  code2571-8 = '2571-8')</span></p><h3>ReferenceRanges</h3><table class=\"grid\"><tr><td style=\"display: none\">-</td><td><b>Low</b></td><td><b>High</b></td></tr><tr><td style=\"display: none\">*</td><td>0 mg/dL<span style=\"background: LightGoldenRodYellow\"> (Details: UCUM  codemg/dL = 'mg/dL')</span></td><td> </td></tr><tr><td style=\"display: none\">*</td><td> </td><td>150 mg/dL<span style=\"background: LightGoldenRodYellow\"> (Details: UCUM  codemg/dL = 'mg/dL')</span></td></tr></table></div>"},"status":"final","category":[{"coding":[{"system":"http://terminology.hl7.org/CodeSystem/observation-category","code":"laboratory"}]}],"code":{"coding":[{"system":"http://loinc.org","code":"2571-8","display":"Triglyceride [Mass/volume] in Serum or Plasma"}],"text":"Triglyceride [Mass/volume] in Serum or Plasma"},"subject":{"reference":"urn:uuid:68971a41-4b4d-45dc-9a30-945bd40c63aa"},"effectiveDateTime":"2024-06-16","performer":[{"display":"The Central European Lab"}],"valueQuantity":{"value":108.5,"unit":"mg/dL","system":"http://unitsofmeasure.org","code":"2571-8"},"referenceRange":[{"low":{"value":0,"system":"http://unitsofmeasure.org","code":"mg/dL"}},{"high":{"value":150,"system":"http://unitsofmeasure.org","code":"mg/dL"}}]}},{"fullUrl":"urn:uuid:8ef49a0a-6319-41ae-b4b0-96afd306ba2d","resource":{"resourceType":"Observation","id":"8ef49a0a-6319-41ae-b4b0-96afd306ba2d","meta":{"profile":["http://hl7.eu/fhir/laboratory/StructureDefinition/Observation-resultslab-eu-lab"]},"text":{"status":"generated","div":"<div xmlns=\"http://www.w3.org/1999/xhtml\"><a name=\"Observation_8ef49a0a-6319-41ae-b4b0-96afd306ba2d\"> </a><p class=\"res-header-id\"><b>Generated Narrative: Observation 8ef49a0a-6319-41ae-b4b0-96afd306ba2d</b></p><a name=\"8ef49a0a-6319-41ae-b4b0-96afd306ba2d\"> </a><a name=\"hc8ef49a0a-6319-41ae-b4b0-96afd306ba2d\"> </a><div style=\"display: inline-block; background-color: #d9e0e7; padding: 6px; margin: 4px; border: 1px solid #8da1b4; border-radius: 5px; line-height: 60%\"><p style=\"margin-bottom: 0px\"/><p style=\"margin-bottom: 0px\">Profile: <a href=\"http://hl7.eu/fhir/laboratory/0.1.1/StructureDefinition-Observation-resultslab-eu-lab.html\">Observation Results: laboratory</a></p></div><p><b>status</b>: Final</p><p><b>category</b>: <span title=\"Codes:{http://terminology.hl7.org/CodeSystem/observation-category laboratory}\">Laboratory</span></p><p><b>code</b>: <span title=\"Codes:{http://loinc.org 18262-6}\">Cholesterol in LDL [Mass/volume] in Serum or Plasma by Direct assay</span></p><p><b>subject</b>: <a href=\"Bundle-Instance-Bundle-fd6de626-cd66-4b9b-9d0a-43efe3bad092.html#urn-uuid-68971a41-4b4d-45dc-9a30-945bd40c63aa\">Mihajel Stamač Male, DoB: 1981-02-27 ( Jurisdictional health number)</a></p><p><b>effective</b>: 2024-06-16</p><p><b>performer</b>: The Central European Lab</p><p><b>value</b>: 133.3 mg/dL<span style=\"background: LightGoldenRodYellow\"> (Details: UCUM  code18262-6 = '18262-6')</span></p><p><b>interpretation</b>: <span title=\"Codes:{http://terminology.hl7.org/CodeSystem/v3-ObservationInterpretation H}\">High</span></p><h3>ReferenceRanges</h3><table class=\"grid\"><tr><td style=\"display: none\">-</td><td><b>Low</b></td><td><b>High</b></td></tr><tr><td style=\"display: none\">*</td><td>0 mg/dL<span style=\"background: LightGoldenRodYellow\"> (Details: UCUM  codemg/dL = 'mg/dL')</span></td><td> </td></tr><tr><td style=\"display: none\">*</td><td> </td><td>130 mg/dL<span style=\"background: LightGoldenRodYellow\"> (Details: UCUM  codemg/dL = 'mg/dL')</span></td></tr></table></div>"},"status":"final","category":[{"coding":[{"system":"http://terminology.hl7.org/CodeSystem/observation-category","code":"laboratory"}]}],"code":{"coding":[{"system":"http://loinc.org","code":"18262-6","display":"Cholesterol in LDL [Mass/volume] in Serum or Plasma by Direct assay"}],"text":"Cholesterol in LDL [Mass/volume] in Serum or Plasma by Direct assay"},"subject":{"reference":"urn:uuid:68971a41-4b4d-45dc-9a30-945bd40c63aa"},"effectiveDateTime":"2024-06-16","performer":[{"display":"The Central European Lab"}],"valueQuantity":{"value":133.3,"unit":"mg/dL","system":"http://unitsofmeasure.org","code":"18262-6"},"interpretation":[{"coding":[{"system":"http://terminology.hl7.org/CodeSystem/v3-ObservationInterpretation","code":"H","display":"High"}]}],"referenceRange":[{"low":{"value":0,"system":"http://unitsofmeasure.org","code":"mg/dL"}},{"high":{"value":130,"system":"http://unitsofmeasure.org","code":"mg/dL"}}]}},{"fullUrl":"urn:uuid:fc4f1633-4f27-4f4e-8a75-5b2c588fa8b3","resource":{"resourceType":"Observation","id":"fc4f1633-4f27-4f4e-8a75-5b2c588fa8b3","meta":{"profile":["http://hl7.eu/fhir/laboratory/StructureDefinition/Observation-resultslab-eu-lab"]},"text":{"status":"generated","div":"<div xmlns=\"http://www.w3.org/1999/xhtml\"><a name=\"Observation_fc4f1633-4f27-4f4e-8a75-5b2c588fa8b3\"> </a><p class=\"res-header-id\"><b>Generated Narrative: Observation fc4f1633-4f27-4f4e-8a75-5b2c588fa8b3</b></p><a name=\"fc4f1633-4f27-4f4e-8a75-5b2c588fa8b3\"> </a><a name=\"hcfc4f1633-4f27-4f4e-8a75-5b2c588fa8b3\"> </a><div style=\"display: inline-block; background-color: #d9e0e7; padding: 6px; margin: 4px; border: 1px solid #8da1b4; border-radius: 5px; line-height: 60%\"><p style=\"margin-bottom: 0px\"/><p style=\"margin-bottom: 0px\">Profile: <a href=\"http://hl7.eu/fhir/laboratory/0.1.1/StructureDefinition-Observation-resultslab-eu-lab.html\">Observation Results: laboratory</a></p></div><p><b>status</b>: Final</p><p><b>category</b>: <span title=\"Codes:{http://terminology.hl7.org/CodeSystem/observation-category laboratory}\">Laboratory</span></p><p><b>code</b>: <span title=\"Codes:{http://loinc.org 2085-9}\">Cholesterol in HDL [Mass/volume] in Serum or Plasma</span></p><p><b>subject</b>: <a href=\"Bundle-Instance-Bundle-fd6de626-cd66-4b9b-9d0a-43efe3bad092.html#urn-uuid-68971a41-4b4d-45dc-9a30-945bd40c63aa\">Mihajel Stamač Male, DoB: 1981-02-27 ( Jurisdictional health number)</a></p><p><b>effective</b>: 2024-06-16</p><p><b>performer</b>: The Central European Lab</p><p><b>value</b>: 56.4 mg/dL<span style=\"background: LightGoldenRodYellow\"> (Details: UCUM  code2085-9 = '2085-9')</span></p><h3>ReferenceRanges</h3><table class=\"grid\"><tr><td style=\"display: none\">-</td><td><b>Low</b></td><td><b>High</b></td></tr><tr><td style=\"display: none\">*</td><td>40 mg/dL<span style=\"background: LightGoldenRodYellow\"> (Details: UCUM  codemg/dL = 'mg/dL')</span></td><td> </td></tr><tr><td style=\"display: none\">*</td><td> </td><td>60 mg/dL<span style=\"background: LightGoldenRodYellow\"> (Details: UCUM  codemg/dL = 'mg/dL')</span></td></tr></table></div>"},"status":"final","category":[{"coding":[{"system":"http://terminology.hl7.org/CodeSystem/observation-category","code":"laboratory"}]}],"code":{"coding":[{"system":"http://loinc.org","code":"2085-9","display":"Cholesterol in HDL [Mass/volume] in Serum or Plasma"}],"text":"Cholesterol in HDL [Mass/volume] in Serum or Plasma"},"subject":{"reference":"urn:uuid:68971a41-4b4d-45dc-9a30-945bd40c63aa"},"effectiveDateTime":"2024-06-16","performer":[{"display":"The Central European Lab"}],"valueQuantity":{"value":56.4,"unit":"mg/dL","system":"http://unitsofmeasure.org","code":"2085-9"},"referenceRange":[{"low":{"value":40,"system":"http://unitsofmeasure.org","code":"mg/dL"}},{"high":{"value":60,"system":"http://unitsofmeasure.org","code":"mg/dL"}}]}},{"fullUrl":"urn:uuid:1b670f64-a27b-406c-a094-f93ad4aee2ef","resource":{"resourceType":"Observation","id":"1b670f64-a27b-406c-a094-f93ad4aee2ef","meta":{"profile":["http://hl7.eu/fhir/laboratory/StructureDefinition/Observation-resultslab-eu-lab"]},"text":{"status":"generated","div":"<div xmlns=\"http://www.w3.org/1999/xhtml\"><a name=\"Observation_1b670f64-a27b-406c-a094-f93ad4aee2ef\"> </a><p class=\"res-header-id\"><b>Generated Narrative: Observation 1b670f64-a27b-406c-a094-f93ad4aee2ef</b></p><a name=\"1b670f64-a27b-406c-a094-f93ad4aee2ef\"> </a><a name=\"hc1b670f64-a27b-406c-a094-f93ad4aee2ef\"> </a><div style=\"display: inline-block; background-color: #d9e0e7; padding: 6px; margin: 4px; border: 1px solid #8da1b4; border-radius: 5px; line-height: 60%\"><p style=\"margin-bottom: 0px\"/><p style=\"margin-bottom: 0px\">Profile: <a href=\"http://hl7.eu/fhir/laboratory/0.1.1/StructureDefinition-Observation-resultslab-eu-lab.html\">Observation Results: laboratory</a></p></div><p><b>status</b>: Final</p><p><b>category</b>: <span title=\"Codes:{http://terminology.hl7.org/CodeSystem/observation-category laboratory}\">Laboratory</span></p><p><b>code</b>: <span title=\"Codes:{http://loinc.org 6690-2}\">Leukocytes [#/volume] in Blood by Automated count</span></p><p><b>subject</b>: <a href=\"Bundle-Instance-Bundle-fd6de626-cd66-4b9b-9d0a-43efe3bad092.html#urn-uuid-68971a41-4b4d-45dc-9a30-945bd40c63aa\">Mihajel Stamač Male, DoB: 1981-02-27 ( Jurisdictional health number)</a></p><p><b>effective</b>: 2024-06-16</p><p><b>performer</b>: The Central European Lab</p><p><b>value</b>: 3.9 10*3/uL<span style=\"background: LightGoldenRodYellow\"> (Details: UCUM  code6690-2 = '6690-2')</span></p><h3>ReferenceRanges</h3><table class=\"grid\"><tr><td style=\"display: none\">-</td><td><b>Low</b></td><td><b>High</b></td></tr><tr><td style=\"display: none\">*</td><td>3.6 10*3/uL<span style=\"background: LightGoldenRodYellow\"> (Details: UCUM  code10*3/uL = '10*3/uL')</span></td><td> </td></tr><tr><td style=\"display: none\">*</td><td> </td><td>10.5 10*3/uL<span style=\"background: LightGoldenRodYellow\"> (Details: UCUM  code10*3/uL = '10*3/uL')</span></td></tr></table></div>"},"status":"final","category":[{"coding":[{"system":"http://terminology.hl7.org/CodeSystem/observation-category","code":"laboratory"}]}],"code":{"coding":[{"system":"http://loinc.org","code":"6690-2","display":"Leukocytes [#/volume] in Blood by Automated count"}],"text":"Leukocytes [#/volume] in Blood by Automated count"},"subject":{"reference":"urn:uuid:68971a41-4b4d-45dc-9a30-945bd40c63aa"},"effectiveDateTime":"2024-06-16","performer":[{"display":"The Central European Lab"}],"valueQuantity":{"value":3.9,"unit":"10*3/uL","system":"http://unitsofmeasure.org","code":"6690-2"},"referenceRange":[{"low":{"value":3.6,"system":"http://unitsofmeasure.org","code":"10*3/uL"}},{"high":{"value":10.5,"system":"http://unitsofmeasure.org","code":"10*3/uL"}}]}},{"fullUrl":"urn:uuid:bcc4e2f5-5444-4bfa-85a5-9f64629689c3","resource":{"resourceType":"Observation","id":"bcc4e2f5-5444-4bfa-85a5-9f64629689c3","meta":{"profile":["http://hl7.eu/fhir/laboratory/StructureDefinition/Observation-resultslab-eu-lab"]},"text":{"status":"generated","div":"<div xmlns=\"http://www.w3.org/1999/xhtml\"><a name=\"Observation_bcc4e2f5-5444-4bfa-85a5-9f64629689c3\"> </a><p class=\"res-header-id\"><b>Generated Narrative: Observation bcc4e2f5-5444-4bfa-85a5-9f64629689c3</b></p><a name=\"bcc4e2f5-5444-4bfa-85a5-9f64629689c3\"> </a><a name=\"hcbcc4e2f5-5444-4bfa-85a5-9f64629689c3\"> </a><div style=\"display: inline-block; background-color: #d9e0e7; padding: 6px; margin: 4px; border: 1px solid #8da1b4; border-radius: 5px; line-height: 60%\"><p style=\"margin-bottom: 0px\"/><p style=\"margin-bottom: 0px\">Profile: <a href=\"http://hl7.eu/fhir/laboratory/0.1.1/StructureDefinition-Observation-resultslab-eu-lab.html\">Observation Results: laboratory</a></p></div><p><b>status</b>: Final</p><p><b>category</b>: <span title=\"Codes:{http://terminology.hl7.org/CodeSystem/observation-category laboratory}\">Laboratory</span></p><p><b>code</b>: <span title=\"Codes:{http://loinc.org 789-8}\">Erythrocytes [#/volume] in Blood by Automated count</span></p><p><b>subject</b>: <a href=\"Bundle-Instance-Bundle-fd6de626-cd66-4b9b-9d0a-43efe3bad092.html#urn-uuid-68971a41-4b4d-45dc-9a30-945bd40c63aa\">Mihajel Stamač Male, DoB: 1981-02-27 ( Jurisdictional health number)</a></p><p><b>effective</b>: 2024-06-16</p><p><b>performer</b>: The Central European Lab</p><p><b>value</b>: 4.3 10*6/uL<span style=\"background: LightGoldenRodYellow\"> (Details: UCUM  code789-8 = '789-8')</span></p><h3>ReferenceRanges</h3><table class=\"grid\"><tr><td style=\"display: none\">-</td><td><b>Low</b></td><td><b>High</b></td></tr><tr><td style=\"display: none\">*</td><td>4.2 10*6/uL<span style=\"background: LightGoldenRodYellow\"> (Details: UCUM  code10*6/uL = '10*6/uL')</span></td><td> </td></tr><tr><td style=\"display: none\">*</td><td> </td><td>5.9 10*6/uL<span style=\"background: LightGoldenRodYellow\"> (Details: UCUM  code10*6/uL = '10*6/uL')</span></td></tr></table></div>"},"status":"final","category":[{"coding":[{"system":"http://terminology.hl7.org/CodeSystem/observation-category","code":"laboratory"}]}],"code":{"coding":[{"system":"http://loinc.org","code":"789-8","display":"Erythrocytes [#/volume] in Blood by Automated count"}],"text":"Erythrocytes [#/volume] in Blood by Automated count"},"subject":{"reference":"urn:uuid:68971a41-4b4d-45dc-9a30-945bd40c63aa"},"effectiveDateTime":"2024-06-16","performer":[{"display":"The Central European Lab"}],"valueQuantity":{"value":4.3,"unit":"10*6/uL","system":"http://unitsofmeasure.org","code":"789-8"},"referenceRange":[{"low":{"value":4.2,"system":"http://unitsofmeasure.org","code":"10*6/uL"}},{"high":{"value":5.9,"system":"http://unitsofmeasure.org","code":"10*6/uL"}}]}},{"fullUrl":"urn:uuid:ed0fb6b6-80a1-4b95-a347-41810f8917ad","resource":{"resourceType":"Observation","id":"ed0fb6b6-80a1-4b95-a347-41810f8917ad","meta":{"profile":["http://hl7.eu/fhir/laboratory/StructureDefinition/Observation-resultslab-eu-lab"]},"text":{"status":"generated","div":"<div xmlns=\"http://www.w3.org/1999/xhtml\"><a name=\"Observation_ed0fb6b6-80a1-4b95-a347-41810f8917ad\"> </a><p class=\"res-header-id\"><b>Generated Narrative: Observation ed0fb6b6-80a1-4b95-a347-41810f8917ad</b></p><a name=\"ed0fb6b6-80a1-4b95-a347-41810f8917ad\"> </a><a name=\"hced0fb6b6-80a1-4b95-a347-41810f8917ad\"> </a><div style=\"display: inline-block; background-color: #d9e0e7; padding: 6px; margin: 4px; border: 1px solid #8da1b4; border-radius: 5px; line-height: 60%\"><p style=\"margin-bottom: 0px\"/><p style=\"margin-bottom: 0px\">Profile: <a href=\"http://hl7.eu/fhir/laboratory/0.1.1/StructureDefinition-Observation-resultslab-eu-lab.html\">Observation Results: laboratory</a></p></div><p><b>status</b>: Final</p><p><b>category</b>: <span title=\"Codes:{http://terminology.hl7.org/CodeSystem/observation-category laboratory}\">Laboratory</span></p><p><b>code</b>: <span title=\"Codes:{http://loinc.org 718-7}\">Hemoglobin [Mass/volume] in Blood</span></p><p><b>subject</b>: <a href=\"Bundle-Instance-Bundle-fd6de626-cd66-4b9b-9d0a-43efe3bad092.html#urn-uuid-68971a41-4b4d-45dc-9a30-945bd40c63aa\">Mihajel Stamač Male, DoB: 1981-02-27 ( Jurisdictional health number)</a></p><p><b>effective</b>: 2024-06-16</p><p><b>performer</b>: The Central European Lab</p><p><b>value</b>: 13.1 g/dL<span style=\"background: LightGoldenRodYellow\"> (Details: UCUM  code718-7 = '718-7')</span></p><p><b>interpretation</b>: <span title=\"Codes:{http://terminology.hl7.org/CodeSystem/v3-ObservationInterpretation L}\">Low</span></p><h3>ReferenceRanges</h3><table class=\"grid\"><tr><td style=\"display: none\">-</td><td><b>Low</b></td><td><b>High</b></td></tr><tr><td style=\"display: none\">*</td><td>13.5 g/dL<span style=\"background: LightGoldenRodYellow\"> (Details: UCUM  codeg/dL = 'g/dL')</span></td><td> </td></tr><tr><td style=\"display: none\">*</td><td> </td><td>17.5 g/dL<span style=\"background: LightGoldenRodYellow\"> (Details: UCUM  codeg/dL = 'g/dL')</span></td></tr></table></div>"},"status":"final","category":[{"coding":[{"system":"http://terminology.hl7.org/CodeSystem/observation-category","code":"laboratory"}]}],"code":{"coding":[{"system":"http://loinc.org","code":"718-7","display":"Hemoglobin [Mass/volume] in Blood"}],"text":"Hemoglobin [Mass/volume] in Blood"},"subject":{"reference":"urn:uuid:68971a41-4b4d-45dc-9a30-945bd40c63aa"},"effectiveDateTime":"2024-06-16","performer":[{"display":"The Central European Lab"}],"valueQuantity":{"value":13.1,"unit":"g/dL","system":"http://unitsofmeasure.org","code":"718-7"},"interpretation":[{"coding":[{"system":"http://terminology.hl7.org/CodeSystem/v3-ObservationInterpretation","code":"L","display":"Low"}]}],"referenceRange":[{"low":{"value":13.5,"system":"http://unitsofmeasure.org","code":"g/dL"}},{"high":{"value":17.5,"system":"http://unitsofmeasure.org","code":"g/dL"}}]}},{"fullUrl":"urn:uuid:3666cc85-b7ce-4cf5-8eb7-1e60e29eb2be","resource":{"resourceType":"Observation","id":"3666cc85-b7ce-4cf5-8eb7-1e60e29eb2be","meta":{"profile":["http://hl7.eu/fhir/laboratory/StructureDefinition/Observation-resultslab-eu-lab"]},"text":{"status":"generated","div":"<div xmlns=\"http://www.w3.org/1999/xhtml\"><a name=\"Observation_3666cc85-b7ce-4cf5-8eb7-1e60e29eb2be\"> </a><p class=\"res-header-id\"><b>Generated Narrative: Observation 3666cc85-b7ce-4cf5-8eb7-1e60e29eb2be</b></p><a name=\"3666cc85-b7ce-4cf5-8eb7-1e60e29eb2be\"> </a><a name=\"hc3666cc85-b7ce-4cf5-8eb7-1e60e29eb2be\"> </a><div style=\"display: inline-block; background-color: #d9e0e7; padding: 6px; margin: 4px; border: 1px solid #8da1b4; border-radius: 5px; line-height: 60%\"><p style=\"margin-bottom: 0px\"/><p style=\"margin-bottom: 0px\">Profile: <a href=\"http://hl7.eu/fhir/laboratory/0.1.1/StructureDefinition-Observation-resultslab-eu-lab.html\">Observation Results: laboratory</a></p></div><p><b>status</b>: Final</p><p><b>category</b>: <span title=\"Codes:{http://terminology.hl7.org/CodeSystem/observation-category laboratory}\">Laboratory</span></p><p><b>code</b>: <span title=\"Codes:{http://loinc.org 4544-3}\">Hematocrit [Volume Fraction] of Blood by Automated count</span></p><p><b>subject</b>: <a href=\"Bundle-Instance-Bundle-fd6de626-cd66-4b9b-9d0a-43efe3bad092.html#urn-uuid-68971a41-4b4d-45dc-9a30-945bd40c63aa\">Mihajel Stamač Male, DoB: 1981-02-27 ( Jurisdictional health number)</a></p><p><b>effective</b>: 2024-06-16</p><p><b>performer</b>: The Central European Lab</p><p><b>value</b>: 36.3 %<span style=\"background: LightGoldenRodYellow\"> (Details: UCUM  code4544-3 = '4544-3')</span></p><p><b>interpretation</b>: <span title=\"Codes:{http://terminology.hl7.org/CodeSystem/v3-ObservationInterpretation L}\">Low</span></p><h3>ReferenceRanges</h3><table class=\"grid\"><tr><td style=\"display: none\">-</td><td><b>Low</b></td><td><b>High</b></td></tr><tr><td style=\"display: none\">*</td><td>38 %<span style=\"background: LightGoldenRodYellow\"> (Details: UCUM  code% = '%')</span></td><td> </td></tr><tr><td style=\"display: none\">*</td><td> </td><td>50 %<span style=\"background: LightGoldenRodYellow\"> (Details: UCUM  code% = '%')</span></td></tr></table></div>"},"status":"final","category":[{"coding":[{"system":"http://terminology.hl7.org/CodeSystem/observation-category","code":"laboratory"}]}],"code":{"coding":[{"system":"http://loinc.org","code":"4544-3","display":"Hematocrit [Volume Fraction] of Blood by Automated count"}],"text":"Hematocrit [Volume Fraction] of Blood by Automated count"},"subject":{"reference":"urn:uuid:68971a41-4b4d-45dc-9a30-945bd40c63aa"},"effectiveDateTime":"2024-06-16","performer":[{"display":"The Central European Lab"}],"valueQuantity":{"value":36.3,"unit":"%","system":"http://unitsofmeasure.org","code":"4544-3"},"interpretation":[{"coding":[{"system":"http://terminology.hl7.org/CodeSystem/v3-ObservationInterpretation","code":"L","display":"Low"}]}],"referenceRange":[{"low":{"value":38,"system":"http://unitsofmeasure.org","code":"%"}},{"high":{"value":50,"system":"http://unitsofmeasure.org","code":"%"}}]}},{"fullUrl":"urn:uuid:211ada02-a1fe-4aca-a274-a9f3341c6e82","resource":{"resourceType":"Observation","id":"211ada02-a1fe-4aca-a274-a9f3341c6e82","meta":{"profile":["http://hl7.eu/fhir/laboratory/StructureDefinition/Observation-resultslab-eu-lab"]},"text":{"status":"generated","div":"<div xmlns=\"http://www.w3.org/1999/xhtml\"><a name=\"Observation_211ada02-a1fe-4aca-a274-a9f3341c6e82\"> </a><p class=\"res-header-id\"><b>Generated Narrative: Observation 211ada02-a1fe-4aca-a274-a9f3341c6e82</b></p><a name=\"211ada02-a1fe-4aca-a274-a9f3341c6e82\"> </a><a name=\"hc211ada02-a1fe-4aca-a274-a9f3341c6e82\"> </a><div style=\"display: inline-block; background-color: #d9e0e7; padding: 6px; margin: 4px; border: 1px solid #8da1b4; border-radius: 5px; line-height: 60%\"><p style=\"margin-bottom: 0px\"/><p style=\"margin-bottom: 0px\">Profile: <a href=\"http://hl7.eu/fhir/laboratory/0.1.1/StructureDefinition-Observation-resultslab-eu-lab.html\">Observation Results: laboratory</a></p></div><p><b>status</b>: Final</p><p><b>category</b>: <span title=\"Codes:{http://terminology.hl7.org/CodeSystem/observation-category laboratory}\">Laboratory</span></p><p><b>code</b>: <span title=\"Codes:{http://loinc.org 787-2}\">MCV [Entitic volume] by Automated count</span></p><p><b>subject</b>: <a href=\"Bundle-Instance-Bundle-fd6de626-cd66-4b9b-9d0a-43efe3bad092.html#urn-uuid-68971a41-4b4d-45dc-9a30-945bd40c63aa\">Mihajel Stamač Male, DoB: 1981-02-27 ( Jurisdictional health number)</a></p><p><b>effective</b>: 2024-06-16</p><p><b>performer</b>: The Central European Lab</p><p><b>value</b>: 90.9 fL<span style=\"background: LightGoldenRodYellow\"> (Details: UCUM  code787-2 = '787-2')</span></p><h3>ReferenceRanges</h3><table class=\"grid\"><tr><td style=\"display: none\">-</td><td><b>Low</b></td><td><b>High</b></td></tr><tr><td style=\"display: none\">*</td><td>82 fL<span style=\"background: LightGoldenRodYellow\"> (Details: UCUM  codefL = 'fL')</span></td><td> </td></tr><tr><td style=\"display: none\">*</td><td> </td><td>98 fL<span style=\"background: LightGoldenRodYellow\"> (Details: UCUM  codefL = 'fL')</span></td></tr></table></div>"},"status":"final","category":[{"coding":[{"system":"http://terminology.hl7.org/CodeSystem/observation-category","code":"laboratory"}]}],"code":{"coding":[{"system":"http://loinc.org","code":"787-2","display":"MCV [Entitic volume] by Automated count"}],"text":"MCV [Entitic volume] by Automated count"},"subject":{"reference":"urn:uuid:68971a41-4b4d-45dc-9a30-945bd40c63aa"},"effectiveDateTime":"2024-06-16","performer":[{"display":"The Central European Lab"}],"valueQuantity":{"value":90.9,"unit":"fL","system":"http://unitsofmeasure.org","code":"787-2"},"referenceRange":[{"low":{"value":82,"system":"http://unitsofmeasure.org","code":"fL"}},{"high":{"value":98,"system":"http://unitsofmeasure.org","code":"fL"}}]}},{"fullUrl":"urn:uuid:e5744eae-cbd4-4bc1-bb7f-148d62dfa6be","resource":{"resourceType":"Observation","id":"e5744eae-cbd4-4bc1-bb7f-148d62dfa6be","meta":{"profile":["http://hl7.eu/fhir/laboratory/StructureDefinition/Observation-resultslab-eu-lab"]},"text":{"status":"generated","div":"<div xmlns=\"http://www.w3.org/1999/xhtml\"><a name=\"Observation_e5744eae-cbd4-4bc1-bb7f-148d62dfa6be\"> </a><p class=\"res-header-id\"><b>Generated Narrative: Observation e5744eae-cbd4-4bc1-bb7f-148d62dfa6be</b></p><a name=\"e5744eae-cbd4-4bc1-bb7f-148d62dfa6be\"> </a><a name=\"hce5744eae-cbd4-4bc1-bb7f-148d62dfa6be\"> </a><div style=\"display: inline-block; background-color: #d9e0e7; padding: 6px; margin: 4px; border: 1px solid #8da1b4; border-radius: 5px; line-height: 60%\"><p style=\"margin-bottom: 0px\"/><p style=\"margin-bottom: 0px\">Profile: <a href=\"http://hl7.eu/fhir/laboratory/0.1.1/StructureDefinition-Observation-resultslab-eu-lab.html\">Observation Results: laboratory</a></p></div><p><b>status</b>: Final</p><p><b>category</b>: <span title=\"Codes:{http://terminology.hl7.org/CodeSystem/observation-category laboratory}\">Laboratory</span></p><p><b>code</b>: <span title=\"Codes:{http://loinc.org 785-6}\">MCH [Entitic mass] by Automated count</span></p><p><b>subject</b>: <a href=\"Bundle-Instance-Bundle-fd6de626-cd66-4b9b-9d0a-43efe3bad092.html#urn-uuid-68971a41-4b4d-45dc-9a30-945bd40c63aa\">Mihajel Stamač Male, DoB: 1981-02-27 ( Jurisdictional health number)</a></p><p><b>effective</b>: 2024-06-16</p><p><b>performer</b>: The Central European Lab</p><p><b>value</b>: 32.2 pg<span style=\"background: LightGoldenRodYellow\"> (Details: UCUM  code785-6 = '785-6')</span></p><h3>ReferenceRanges</h3><table class=\"grid\"><tr><td style=\"display: none\">-</td><td><b>Low</b></td><td><b>High</b></td></tr><tr><td style=\"display: none\">*</td><td>27 pg<span style=\"background: LightGoldenRodYellow\"> (Details: UCUM  codepg = 'pg')</span></td><td> </td></tr><tr><td style=\"display: none\">*</td><td> </td><td>34 pg<span style=\"background: LightGoldenRodYellow\"> (Details: UCUM  codepg = 'pg')</span></td></tr></table></div>"},"status":"final","category":[{"coding":[{"system":"http://terminology.hl7.org/CodeSystem/observation-category","code":"laboratory"}]}],"code":{"coding":[{"system":"http://loinc.org","code":"785-6","display":"MCH [Entitic mass] by Automated count"}],"text":"MCH [Entitic mass] by Automated count"},"subject":{"reference":"urn:uuid:68971a41-4b4d-45dc-9a30-945bd40c63aa"},"effectiveDateTime":"2024-06-16","performer":[{"display":"The Central European Lab"}],"valueQuantity":{"value":32.2,"unit":"pg","system":"http://unitsofmeasure.org","code":"785-6"},"referenceRange":[{"low":{"value":27,"system":"http://unitsofmeasure.org","code":"pg"}},{"high":{"value":34,"system":"http://unitsofmeasure.org","code":"pg"}}]}},{"fullUrl":"urn:uuid:c1f2e29d-ad50-463f-a4a3-6f62cd5d6450","resource":{"resourceType":"Observation","id":"c1f2e29d-ad50-463f-a4a3-6f62cd5d6450","meta":{"profile":["http://hl7.eu/fhir/laboratory/StructureDefinition/Observation-resultslab-eu-lab"]},"text":{"status":"generated","div":"<div xmlns=\"http://www.w3.org/1999/xhtml\"><a name=\"Observation_c1f2e29d-ad50-463f-a4a3-6f62cd5d6450\"> </a><p class=\"res-header-id\"><b>Generated Narrative: Observation c1f2e29d-ad50-463f-a4a3-6f62cd5d6450</b></p><a name=\"c1f2e29d-ad50-463f-a4a3-6f62cd5d6450\"> </a><a name=\"hcc1f2e29d-ad50-463f-a4a3-6f62cd5d6450\"> </a><div style=\"display: inline-block; background-color: #d9e0e7; padding: 6px; margin: 4px; border: 1px solid #8da1b4; border-radius: 5px; line-height: 60%\"><p style=\"margin-bottom: 0px\"/><p style=\"margin-bottom: 0px\">Profile: <a href=\"http://hl7.eu/fhir/laboratory/0.1.1/StructureDefinition-Observation-resultslab-eu-lab.html\">Observation Results: laboratory</a></p></div><p><b>status</b>: Final</p><p><b>category</b>: <span title=\"Codes:{http://terminology.hl7.org/CodeSystem/observation-category laboratory}\">Laboratory</span></p><p><b>code</b>: <span title=\"Codes:{http://loinc.org 786-4}\">MCHC [Mass/volume] by Automated count</span></p><p><b>subject</b>: <a href=\"Bundle-Instance-Bundle-fd6de626-cd66-4b9b-9d0a-43efe3bad092.html#urn-uuid-68971a41-4b4d-45dc-9a30-945bd40c63aa\">Mihajel Stamač Male, DoB: 1981-02-27 ( Jurisdictional health number)</a></p><p><b>effective</b>: 2024-06-16</p><p><b>performer</b>: The Central European Lab</p><p><b>value</b>: 33.5 g/dL<span style=\"background: LightGoldenRodYellow\"> (Details: UCUM  code786-4 = '786-4')</span></p><h3>ReferenceRanges</h3><table class=\"grid\"><tr><td style=\"display: none\">-</td><td><b>Low</b></td><td><b>High</b></td></tr><tr><td style=\"display: none\">*</td><td>31 g/dL<span style=\"background: LightGoldenRodYellow\"> (Details: UCUM  codeg/dL = 'g/dL')</span></td><td> </td></tr><tr><td style=\"display: none\">*</td><td> </td><td>35 g/dL<span style=\"background: LightGoldenRodYellow\"> (Details: UCUM  codeg/dL = 'g/dL')</span></td></tr></table></div>"},"status":"final","category":[{"coding":[{"system":"http://terminology.hl7.org/CodeSystem/observation-category","code":"laboratory"}]}],"code":{"coding":[{"system":"http://loinc.org","code":"786-4","display":"MCHC [Mass/volume] by Automated count"}],"text":"MCHC [Mass/volume] by Automated count"},"subject":{"reference":"urn:uuid:68971a41-4b4d-45dc-9a30-945bd40c63aa"},"effectiveDateTime":"2024-06-16","performer":[{"display":"The Central European Lab"}],"valueQuantity":{"value":33.5,"unit":"g/dL","system":"http://unitsofmeasure.org","code":"786-4"},"referenceRange":[{"low":{"value":31,"system":"http://unitsofmeasure.org","code":"g/dL"}},{"high":{"value":35,"system":"http://unitsofmeasure.org","code":"g/dL"}}]}},{"fullUrl":"urn:uuid:0bd9f0b0-0fed-4c8f-9743-20e61b455ef9","resource":{"resourceType":"Observation","id":"0bd9f0b0-0fed-4c8f-9743-20e61b455ef9","meta":{"profile":["http://hl7.eu/fhir/laboratory/StructureDefinition/Observation-resultslab-eu-lab"]},"text":{"status":"generated","div":"<div xmlns=\"http://www.w3.org/1999/xhtml\"><a name=\"Observation_0bd9f0b0-0fed-4c8f-9743-20e61b455ef9\"> </a><p class=\"res-header-id\"><b>Generated Narrative: Observation 0bd9f0b0-0fed-4c8f-9743-20e61b455ef9</b></p><a name=\"0bd9f0b0-0fed-4c8f-9743-20e61b455ef9\"> </a><a name=\"hc0bd9f0b0-0fed-4c8f-9743-20e61b455ef9\"> </a><div style=\"display: inline-block; background-color: #d9e0e7; padding: 6px; margin: 4px; border: 1px solid #8da1b4; border-radius: 5px; line-height: 60%\"><p style=\"margin-bottom: 0px\"/><p style=\"margin-bottom: 0px\">Profile: <a href=\"http://hl7.eu/fhir/laboratory/0.1.1/StructureDefinition-Observation-resultslab-eu-lab.html\">Observation Results: laboratory</a></p></div><p><b>status</b>: Final</p><p><b>category</b>: <span title=\"Codes:{http://terminology.hl7.org/CodeSystem/observation-category laboratory}\">Laboratory</span></p><p><b>code</b>: <span title=\"Codes:{http://loinc.org 21000-5}\">Erythrocyte distribution width [Entitic volume] by Automated count</span></p><p><b>subject</b>: <a href=\"Bundle-Instance-Bundle-fd6de626-cd66-4b9b-9d0a-43efe3bad092.html#urn-uuid-68971a41-4b4d-45dc-9a30-945bd40c63aa\">Mihajel Stamač Male, DoB: 1981-02-27 ( Jurisdictional health number)</a></p><p><b>effective</b>: 2024-06-16</p><p><b>performer</b>: The Central European Lab</p><p><b>value</b>: 41.6 fL<span style=\"background: LightGoldenRodYellow\"> (Details: UCUM  code21000-5 = '21000-5')</span></p><h3>ReferenceRanges</h3><table class=\"grid\"><tr><td style=\"display: none\">-</td><td><b>Low</b></td><td><b>High</b></td></tr><tr><td style=\"display: none\">*</td><td>39 fL<span style=\"background: LightGoldenRodYellow\"> (Details: UCUM  codefL = 'fL')</span></td><td> </td></tr><tr><td style=\"display: none\">*</td><td> </td><td>55 fL<span style=\"background: LightGoldenRodYellow\"> (Details: UCUM  codefL = 'fL')</span></td></tr></table></div>"},"status":"final","category":[{"coding":[{"system":"http://terminology.hl7.org/CodeSystem/observation-category","code":"laboratory"}]}],"code":{"coding":[{"system":"http://loinc.org","code":"21000-5","display":"Erythrocyte distribution width [Entitic volume] by Automated count"}],"text":"Erythrocyte distribution width [Entitic volume] by Automated count"},"subject":{"reference":"urn:uuid:68971a41-4b4d-45dc-9a30-945bd40c63aa"},"effectiveDateTime":"2024-06-16","performer":[{"display":"The Central European Lab"}],"valueQuantity":{"value":41.6,"unit":"fL","system":"http://unitsofmeasure.org","code":"21000-5"},"referenceRange":[{"low":{"value":39,"system":"http://unitsofmeasure.org","code":"fL"}},{"high":{"value":55,"system":"http://unitsofmeasure.org","code":"fL"}}]}},{"fullUrl":"urn:uuid:3b2c2772-78df-4769-85a9-f770af4c6432","resource":{"resourceType":"Observation","id":"3b2c2772-78df-4769-85a9-f770af4c6432","meta":{"profile":["http://hl7.eu/fhir/laboratory/StructureDefinition/Observation-resultslab-eu-lab"]},"text":{"status":"generated","div":"<div xmlns=\"http://www.w3.org/1999/xhtml\"><a name=\"Observation_3b2c2772-78df-4769-85a9-f770af4c6432\"> </a><p class=\"res-header-id\"><b>Generated Narrative: Observation 3b2c2772-78df-4769-85a9-f770af4c6432</b></p><a name=\"3b2c2772-78df-4769-85a9-f770af4c6432\"> </a><a name=\"hc3b2c2772-78df-4769-85a9-f770af4c6432\"> </a><div style=\"display: inline-block; background-color: #d9e0e7; padding: 6px; margin: 4px; border: 1px solid #8da1b4; border-radius: 5px; line-height: 60%\"><p style=\"margin-bottom: 0px\"/><p style=\"margin-bottom: 0px\">Profile: <a href=\"http://hl7.eu/fhir/laboratory/0.1.1/StructureDefinition-Observation-resultslab-eu-lab.html\">Observation Results: laboratory</a></p></div><p><b>status</b>: Final</p><p><b>category</b>: <span title=\"Codes:{http://terminology.hl7.org/CodeSystem/observation-category laboratory}\">Laboratory</span></p><p><b>code</b>: <span title=\"Codes:{http://loinc.org 777-3}\">Platelets [#/volume] in Blood by Automated count</span></p><p><b>subject</b>: <a href=\"Bundle-Instance-Bundle-fd6de626-cd66-4b9b-9d0a-43efe3bad092.html#urn-uuid-68971a41-4b4d-45dc-9a30-945bd40c63aa\">Mihajel Stamač Male, DoB: 1981-02-27 ( Jurisdictional health number)</a></p><p><b>effective</b>: 2024-06-16</p><p><b>performer</b>: The Central European Lab</p><p><b>value</b>: 269.8 10*3/uL<span style=\"background: LightGoldenRodYellow\"> (Details: UCUM  code777-3 = '777-3')</span></p><h3>ReferenceRanges</h3><table class=\"grid\"><tr><td style=\"display: none\">-</td><td><b>Low</b></td><td><b>High</b></td></tr><tr><td style=\"display: none\">*</td><td>150 10*3/uL<span style=\"background: LightGoldenRodYellow\"> (Details: UCUM  code10*3/uL = '10*3/uL')</span></td><td> </td></tr><tr><td style=\"display: none\">*</td><td> </td><td>363 10*3/uL<span style=\"background: LightGoldenRodYellow\"> (Details: UCUM  code10*3/uL = '10*3/uL')</span></td></tr></table></div>"},"status":"final","category":[{"coding":[{"system":"http://terminology.hl7.org/CodeSystem/observation-category","code":"laboratory"}]}],"code":{"coding":[{"system":"http://loinc.org","code":"777-3","display":"Platelets [#/volume] in Blood by Automated count"}],"text":"Platelets [#/volume] in Blood by Automated count"},"subject":{"reference":"urn:uuid:68971a41-4b4d-45dc-9a30-945bd40c63aa"},"effectiveDateTime":"2024-06-16","performer":[{"display":"The Central European Lab"}],"valueQuantity":{"value":269.8,"unit":"10*3/uL","system":"http://unitsofmeasure.org","code":"777-3"},"referenceRange":[{"low":{"value":150,"system":"http://unitsofmeasure.org","code":"10*3/uL"}},{"high":{"value":363,"system":"http://unitsofmeasure.org","code":"10*3/uL"}}]}},{"fullUrl":"urn:uuid:b207ada7-3ad8-4461-899e-70ffda4008dc","resource":{"resourceType":"Observation","id":"b207ada7-3ad8-4461-899e-70ffda4008dc","meta":{"profile":["http://hl7.eu/fhir/laboratory/StructureDefinition/Observation-resultslab-eu-lab"]},"text":{"status":"generated","div":"<div xmlns=\"http://www.w3.org/1999/xhtml\"><a name=\"Observation_b207ada7-3ad8-4461-899e-70ffda4008dc\"> </a><p class=\"res-header-id\"><b>Generated Narrative: Observation b207ada7-3ad8-4461-899e-70ffda4008dc</b></p><a name=\"b207ada7-3ad8-4461-899e-70ffda4008dc\"> </a><a name=\"hcb207ada7-3ad8-4461-899e-70ffda4008dc\"> </a><div style=\"display: inline-block; background-color: #d9e0e7; padding: 6px; margin: 4px; border: 1px solid #8da1b4; border-radius: 5px; line-height: 60%\"><p style=\"margin-bottom: 0px\"/><p style=\"margin-bottom: 0px\">Profile: <a href=\"http://hl7.eu/fhir/laboratory/0.1.1/StructureDefinition-Observation-resultslab-eu-lab.html\">Observation Results: laboratory</a></p></div><p><b>status</b>: Final</p><p><b>category</b>: <span title=\"Codes:{http://terminology.hl7.org/CodeSystem/observation-category laboratory}\">Laboratory</span></p><p><b>code</b>: <span title=\"Codes:{http://loinc.org 32207-3}\">Platelet distribution width [Entitic volume] in Blood by Automated count</span></p><p><b>subject</b>: <a href=\"Bundle-Instance-Bundle-fd6de626-cd66-4b9b-9d0a-43efe3bad092.html#urn-uuid-68971a41-4b4d-45dc-9a30-945bd40c63aa\">Mihajel Stamač Male, DoB: 1981-02-27 ( Jurisdictional health number)</a></p><p><b>effective</b>: 2024-06-16</p><p><b>performer</b>: The Central European Lab</p><p><b>value</b>: 393 fL<span style=\"background: LightGoldenRodYellow\"> (Details: UCUM  code32207-3 = '32207-3')</span></p><h3>ReferenceRanges</h3><table class=\"grid\"><tr><td style=\"display: none\">-</td><td><b>Low</b></td><td><b>High</b></td></tr><tr><td style=\"display: none\">*</td><td>150 fL<span style=\"background: LightGoldenRodYellow\"> (Details: UCUM  codefL = 'fL')</span></td><td> </td></tr><tr><td style=\"display: none\">*</td><td> </td><td>450 fL<span style=\"background: LightGoldenRodYellow\"> (Details: UCUM  codefL = 'fL')</span></td></tr></table></div>"},"status":"final","category":[{"coding":[{"system":"http://terminology.hl7.org/CodeSystem/observation-category","code":"laboratory"}]}],"code":{"coding":[{"system":"http://loinc.org","code":"32207-3","display":"Platelet distribution width [Entitic volume] in Blood by Automated count"}],"text":"Platelet distribution width [Entitic volume] in Blood by Automated count"},"subject":{"reference":"urn:uuid:68971a41-4b4d-45dc-9a30-945bd40c63aa"},"effectiveDateTime":"2024-06-16","performer":[{"display":"The Central European Lab"}],"valueQuantity":{"value":393,"unit":"fL","system":"http://unitsofmeasure.org","code":"32207-3"},"referenceRange":[{"low":{"value":150,"system":"http://unitsofmeasure.org","code":"fL"}},{"high":{"value":450,"system":"http://unitsofmeasure.org","code":"fL"}}]}},{"fullUrl":"urn:uuid:ed125bd4-f0aa-4b2b-a37f-df20bfecd74e","resource":{"resourceType":"Observation","id":"ed125bd4-f0aa-4b2b-a37f-df20bfecd74e","meta":{"profile":["http://hl7.eu/fhir/laboratory/StructureDefinition/Observation-resultslab-eu-lab"]},"text":{"status":"generated","div":"<div xmlns=\"http://www.w3.org/1999/xhtml\"><a name=\"Observation_ed125bd4-f0aa-4b2b-a37f-df20bfecd74e\"> </a><p class=\"res-header-id\"><b>Generated Narrative: Observation ed125bd4-f0aa-4b2b-a37f-df20bfecd74e</b></p><a name=\"ed125bd4-f0aa-4b2b-a37f-df20bfecd74e\"> </a><a name=\"hced125bd4-f0aa-4b2b-a37f-df20bfecd74e\"> </a><div style=\"display: inline-block; background-color: #d9e0e7; padding: 6px; margin: 4px; border: 1px solid #8da1b4; border-radius: 5px; line-height: 60%\"><p style=\"margin-bottom: 0px\"/><p style=\"margin-bottom: 0px\">Profile: <a href=\"http://hl7.eu/fhir/laboratory/0.1.1/StructureDefinition-Observation-resultslab-eu-lab.html\">Observation Results: laboratory</a></p></div><p><b>status</b>: Final</p><p><b>category</b>: <span title=\"Codes:{http://terminology.hl7.org/CodeSystem/observation-category laboratory}\">Laboratory</span></p><p><b>code</b>: <span title=\"Codes:{http://loinc.org 32623-1}\">Platelet mean volume [Entitic volume] in Blood by Automated count</span></p><p><b>subject</b>: <a href=\"Bundle-Instance-Bundle-fd6de626-cd66-4b9b-9d0a-43efe3bad092.html#urn-uuid-68971a41-4b4d-45dc-9a30-945bd40c63aa\">Mihajel Stamač Male, DoB: 1981-02-27 ( Jurisdictional health number)</a></p><p><b>effective</b>: 2024-06-16</p><p><b>performer</b>: The Central European Lab</p><p><b>value</b>: 10 fL<span style=\"background: LightGoldenRodYellow\"> (Details: UCUM  code32623-1 = '32623-1')</span></p><h3>ReferenceRanges</h3><table class=\"grid\"><tr><td style=\"display: none\">-</td><td><b>Low</b></td><td><b>High</b></td></tr><tr><td style=\"display: none\">*</td><td>7.2 fL<span style=\"background: LightGoldenRodYellow\"> (Details: UCUM  codefL = 'fL')</span></td><td> </td></tr><tr><td style=\"display: none\">*</td><td> </td><td>13.5 fL<span style=\"background: LightGoldenRodYellow\"> (Details: UCUM  codefL = 'fL')</span></td></tr></table></div>"},"status":"final","category":[{"coding":[{"system":"http://terminology.hl7.org/CodeSystem/observation-category","code":"laboratory"}]}],"code":{"coding":[{"system":"http://loinc.org","code":"32623-1","display":"Platelet mean volume [Entitic volume] in Blood by Automated count"}],"text":"Platelet mean volume [Entitic volume] in Blood by Automated count"},"subject":{"reference":"urn:uuid:68971a41-4b4d-45dc-9a30-945bd40c63aa"},"effectiveDateTime":"2024-06-16","performer":[{"display":"The Central European Lab"}],"valueQuantity":{"value":10,"unit":"fL","system":"http://unitsofmeasure.org","code":"32623-1"},"referenceRange":[{"low":{"value":7.2,"system":"http://unitsofmeasure.org","code":"fL"}},{"high":{"value":13.5,"system":"http://unitsofmeasure.org","code":"fL"}}]}},{"fullUrl":"urn:uuid:5761a45a-7c22-46fb-baa5-cdb66a568b0c","resource":{"resourceType":"DeviceUseStatement","id":"5761a45a-7c22-46fb-baa5-cdb66a568b0c","meta":{"profile":["http://hl7.eu/fhir/eps/StructureDefinition/deviceUseStatement-eu-eps"]},"text":{"status":"generated","div":"<div xmlns=\"http://www.w3.org/1999/xhtml\"><a name=\"DeviceUseStatement_5761a45a-7c22-46fb-baa5-cdb66a568b0c\"> </a><table class=\"hl7__ips\"><tr><td>Blood glucose meter (physical object)</td><td><span class=\"nb\">2021-06-20</span></td></tr></table></div>"},"status":"active","subject":{"reference":"urn:uuid:68971a41-4b4d-45dc-9a30-945bd40c63aa","display":"Mihajel Stamač"},"timingPeriod":{"start":"2021-06-20"},"device":{"reference":"urn:uuid:6b8d05ff-8664-4c56-b64c-37974a4ebd3d","display":"Blood glucose meter (physical object)"}}},{"fullUrl":"urn:uuid:5761a45a-7c22-46fb-baa5-cdb66a568b0c","resource":{"resourceType":"Device","id":"6b8d05ff-8664-4c56-b64c-37974a4ebd3d","meta":{"profile":["http://hl7.eu/fhir/eps/StructureDefinition/device-eu-eps"]},"text":{"status":"generated","div":"<div xmlns=\"http://www.w3.org/1999/xhtml\"><a name=\"Device_6b8d05ff-8664-4c56-b64c-37974a4ebd3d\"> </a><p class=\"res-header-id\"><b>Generated Narrative: Device 6b8d05ff-8664-4c56-b64c-37974a4ebd3d</b></p><a name=\"6b8d05ff-8664-4c56-b64c-37974a4ebd3d\"> </a><a name=\"hc6b8d05ff-8664-4c56-b64c-37974a4ebd3d\"> </a><div style=\"display: inline-block; background-color: #d9e0e7; padding: 6px; margin: 4px; border: 1px solid #8da1b4; border-radius: 5px; line-height: 60%\"><p style=\"margin-bottom: 0px\"/><p style=\"margin-bottom: 0px\">Profile: <a href=\"StructureDefinition-device-eu-eps.html\">Device (EPS)</a></p></div><blockquote><p><b>udiCarrier</b></p><blockquote><p><b>id</b></p>(01)84624935522165(11)210530(17)460614(10)86745521629163(21)1963192325395</blockquote></blockquote><p><b>status</b>: Active</p><p><b>type</b>: <span title=\"Codes:{http://snomed.info/sct 337414009}\">Blood glucose meter (physical object)</span></p><p><b>patient</b>: <a href=\"Bundle-Instance-Bundle-fd6de626-cd66-4b9b-9d0a-43efe3bad092.html#urn-uuid-68971a41-4b4d-45dc-9a30-945bd40c63aa\">Mihajel Stamač</a></p></div>"},"udiCarrier":[{"id":"(01)84624935522165(11)210530(17)460614(10)86745521629163(21)1963192325395"}],"status":"active","type":{"coding":[{"system":"http://snomed.info/sct","code":"337414009","display":"Blood glucose meter (physical object)"}]},"patient":{"reference":"urn:uuid:68971a41-4b4d-45dc-9a30-945bd40c63aa","display":"Mihajel Stamač"}}}]}