{"resourceType":"Bundle","id":"Instance-Bundle-fc1c3ac6-c97e-4fa5-96f7-a3a443b45be3","meta":{"profile":["http://hl7.eu/fhir/eps/StructureDefinition/bundle-eu-eps"]},"identifier":{"system":"urn:oid:2.16.840.1.113883.2.51.999","value":"2023b82f-e33e-4939-99f2-42a87006b934","assigner":{"display":"HL7 Europe"}},"type":"document","timestamp":"2025-08-31T17:49:50Z","entry":[{"fullUrl":"urn:uuid:2caf279f-c9f9-43e3-999a-107b526d4494","resource":{"resourceType":"Composition","id":"2caf279f-c9f9-43e3-999a-107b526d4494","meta":{"profile":["http://hl7.eu/fhir/eps/StructureDefinition/composition-eu-eps"]},"text":{"status":"generated","div":"<div xmlns=\"http://www.w3.org/1999/xhtml\"><a name=\"Composition_2caf279f-c9f9-43e3-999a-107b526d4494\"> </a><p class=\"res-header-id\"><b>Generated Narrative: Composition 2caf279f-c9f9-43e3-999a-107b526d4494</b></p><a name=\"2caf279f-c9f9-43e3-999a-107b526d4494\"> </a><a name=\"hc2caf279f-c9f9-43e3-999a-107b526d4494\"> </a><div style=\"display: inline-block; background-color: #d9e0e7; padding: 6px; margin: 4px; border: 1px solid #8da1b4; border-radius: 5px; line-height: 60%\"><p style=\"margin-bottom: 0px\"/><p style=\"margin-bottom: 0px\">Profile: <a href=\"StructureDefinition-composition-eu-eps.html\">Composition (EPS)</a></p></div><p><b>identifier</b>: <code>urn:oid:2.16.840.1.113883.2.51.999</code>/f0d5f984-baae-4147-bfb0-1165f2c76ae5</p><p><b>status</b>: Final</p><p><b>type</b>: <span title=\"Codes:{http://loinc.org 60591-5}\">Patient summary Document</span></p><p><b>date</b>: 2025-08-31 17:49:50+0000</p><p><b>author</b>: <a href=\"Bundle-Instance-Bundle-fc1c3ac6-c97e-4fa5-96f7-a3a443b45be3.html#urn-uuid-49f63d3b-4f76-4605-a3bd-e8d7d09213a4\">PractitionerRole</a></p><p><b>title</b>: European Patient Summary</p><p><b>confidentiality</b>: normal</p><p><b>custodian</b>: <a href=\"Bundle-Instance-Bundle-fc1c3ac6-c97e-4fa5-96f7-a3a443b45be3.html#urn-uuid-16b98421-4542-49ce-a5e9-7c458447e0f1\">Organization Gävle Sjukhus ingång 25</a></p></div>"},"identifier":{"system":"urn:oid:2.16.840.1.113883.2.51.999","value":"f0d5f984-baae-4147-bfb0-1165f2c76ae5","assigner":{"display":"HL7 Europe"}},"status":"final","type":{"coding":[{"system":"http://loinc.org","code":"60591-5","display":"Patient summary Document"}],"text":"Patient summary Document"},"subject":{"reference":"urn:uuid:538f125e-f171-4ec3-b018-8a23e0f06828"},"date":"2025-08-31T17:49:50Z","author":[{"reference":"urn:uuid:49f63d3b-4f76-4605-a3bd-e8d7d09213a4"}],"title":"European Patient Summary","confidentiality":"N","custodian":{"reference":"urn:uuid:16b98421-4542-49ce-a5e9-7c458447e0f1"},"section":[{"title":"Problem list","code":{"coding":[{"system":"http://loinc.org","code":"11450-4","display":"Problem list - Reported"}]},"text":{"status":"generated","div":"<div xmlns=\"http://www.w3.org/1999/xhtml\"><table class=\"hl7__ips\"><tr><th>Condition</th><th>Onset Date</th><th>Status</th></tr><tr><td>Hyperlipidemia</td><td><span class=\"nb\">2020-07-26</span></td><td>active</td></tr><tr><td>Ischemic heart disease</td><td><span class=\"nb\">2020-07-26</span></td><td>active</td></tr><tr><td>Anemia</td><td><span class=\"nb\">2002-04-14</span></td><td>active</td></tr><tr><td>Prediabetes</td><td><span class=\"nb\">1997-03-16</span></td><td>active</td></tr></table></div>"},"entry":[{"reference":"urn:uuid:e1504890-3ef4-4e1c-acf4-530df04379d2"},{"reference":"urn:uuid:319ceb88-67a2-4e72-8763-f6bf2c75c4c3"},{"reference":"urn:uuid:aadc4c52-563d-499e-986a-1fa6aff4de71"},{"reference":"urn:uuid:42b021b7-6ef8-46b2-889b-775784dbf532"}]},{"title":"History of Past Illness","code":{"coding":[{"system":"http://loinc.org","code":"11348-0","display":"History of Past illness Narrative"}]},"text":{"status":"generated","div":"<div xmlns=\"http://www.w3.org/1999/xhtml\"><table class=\"hl7__ips\"><tr><th>Condition</th><th>Period</th><th>Status</th></tr><tr><td><span class=\"grayedout\">Viral sinusitis</span></td><td><span class=\"nb\">2023-12-19 – 2023-12-26</span></td><td><span class=\"grayedout\">inactive</span></td></tr><tr><td><span class=\"grayedout\">Laceration of hand</span></td><td><span class=\"nb\">2021-09-08 – 2021-10-04</span></td><td><span class=\"grayedout\">inactive</span></td></tr><tr><td><span class=\"grayedout\">Laceration - injury</span></td><td><span class=\"nb\">2021-09-08 – 2021-10-04</span></td><td><span class=\"grayedout\">inactive</span></td></tr><tr><td><span class=\"grayedout\">COVID-19</span></td><td><span class=\"nb\">2020-11-28 – 2020-12-29</span></td><td><span class=\"grayedout\">inactive</span></td></tr></table></div>"},"entry":[{"reference":"urn:uuid:d60663c9-51d4-4732-9b10-28625dd1f140"},{"reference":"urn:uuid:e8779d67-d033-47b4-b707-39c7135cc6f8"},{"reference":"urn:uuid:e888cadb-3d5e-405f-8ad7-fa1f4c22dd03"},{"reference":"urn:uuid:8c207d99-e4ee-4132-ab1d-9c8b3c4ec878"}]},{"title":"Medication list","code":{"coding":[{"system":"http://loinc.org","code":"10160-0","display":"History of Medication use Narrative"}]},"text":{"status":"generated","div":"<div xmlns=\"http://www.w3.org/1999/xhtml\"><table class=\"hl7__ips\"><tr><th>Medication</th><th>Since</th><th>Form</th><th>Dosage</th><th>Reason</th></tr><tr><td>Simvastatin 10 mg oral tablet</td><td><span class=\"nb\">2024-08-25</span></td><td>Oral tablet</td><td>1 tablet (10 mg) by mouth once daily</td><td>Hyperlipidemia</td></tr><tr><td>Clopidogrel (as clopidogrel bisulfate) 75 mg oral tablet</td><td><span class=\"nb\">2020-08-02</span></td><td>Oral tablet</td><td>1 tablet (75 mg) once daily</td><td/></tr><tr><td>Simvastatin 20 mg oral tablet</td><td><span class=\"nb\">2020-08-02</span></td><td>Oral tablet</td><td>1 tablet (20 mg) by mouth once daily</td><td/></tr><tr><td>Nitroglycerin 400 microgram/actuation sublingual spray</td><td><span class=\"nb\">2020-08-02</span></td><td>Sublingual spray</td><td>400 micrograms per spray, 1 spray under the tongue as needed for chest pain, may repeat every 5 minutes as needed, up to 3 sprays in 15 minutes</td><td/></tr><tr><td>Metoprolol tartrate (as metoprolol succinate) 100 mg prolonged-release oral tablet</td><td><span class=\"nb\">2020-08-02</span></td><td>Prolonged-release oral tablet</td><td>1 tablet (100 mg) once daily</td><td/></tr></table></div>"},"entry":[{"reference":"urn:uuid:be605cbd-5464-44e5-8505-112b63e4476e"},{"reference":"urn:uuid:8cbe1169-5931-46d3-9ae0-c0d5cc70e095"},{"reference":"urn:uuid:a8c8ce9a-675b-42a6-95b4-3e0eb851bf60"},{"reference":"urn:uuid:51d9bda8-ab36-4532-87f5-778eed9500c9"},{"reference":"urn:uuid:f88d1363-b624-45cb-a182-71c4e415c5d2"}]},{"title":"Immunizations list","code":{"coding":[{"system":"http://loinc.org","code":"11369-6","display":"History of Immunization Narrative"}]},"text":{"status":"generated","div":"<div xmlns=\"http://www.w3.org/1999/xhtml\"><table class=\"hl7__ips\"><tr><th>Vaccine</th><th>Date</th></tr><tr><td>Influenza virus antigen only vaccine product</td><td><span class=\"nb\">2024-08-18</span></td></tr><tr><td>SARS-CoV-2 mRNA vaccine</td><td><span class=\"nb\">2021-03-14</span></td></tr><tr><td>Clostridium tetani toxoid antigen adsorbed only vaccine product</td><td><span class=\"nb\">2017-07-09</span></td></tr></table></div>"},"entry":[{"reference":"urn:uuid:00801b0c-dd23-4924-8a7e-ad43827123b3"},{"reference":"urn:uuid:3269dd78-020e-430b-b02e-9be97c342e5d"},{"reference":"urn:uuid:0a738cce-d3b1-4e03-849b-c539a75cd9f6"}]},{"title":"Allergies and Intolerances","code":{"coding":[{"system":"http://loinc.org","code":"48765-2","display":"Allergies and adverse reactions Document"}]},"text":{"status":"generated","div":"<div xmlns=\"http://www.w3.org/1999/xhtml\"><table class=\"hl7__ips\"><tr><td>No known allergies or intolerances</td></tr></table></div>"},"entry":[{"reference":"urn:uuid:fba5d169-c9dd-4b19-8027-1a9858ed881e"}]},{"title":"Care Plan","code":{"coding":[{"system":"http://loinc.org","code":"18776-5","display":"Plan of care note"}]},"text":{"status":"generated","div":"<div xmlns=\"http://www.w3.org/1999/xhtml\"><table class=\"hl7__ips\"><tr><th>Immunization Recommendation</th><th>Due Date</th><th>Reason</th></tr><tr><td>Vaccine product containing only Influenza virus antigen (medicinal product)</td><td><span class=\"nb\">2025-10-01</span></td><td>Annual seasonal influenza vaccination</td></tr></table></div>"},"entry":[{"reference":"urn:uuid:19f0ac54-3b7a-449c-b7c8-05eb652e4db6"},{"reference":"urn:uuid:11f212af-86af-4753-84b5-f7dc1fec2c86"},{"reference":"urn:uuid:c9209d40-f914-46c6-b5c2-119636567c82"}]},{"title":"Vital Signs","code":{"coding":[{"system":"http://loinc.org","code":"8716-3","display":"Vital signs"}]},"text":{"status":"generated","div":"<div xmlns=\"http://www.w3.org/1999/xhtml\"><table class=\"hl7__ips\"><tr><th>Vital Signs</th><th>2024-08-18</th><th>2023-08-13</th></tr><tr><td>Body Height</td><td>171.1 cm</td><td>171.1 cm</td></tr><tr><td>Pain severity - 0-10 verbal numeric rating [Score] - Reported</td><td>1 {score}</td><td>1 {score}</td></tr><tr><td>Body Weight</td><td>80.7 kg</td><td>80.7 kg</td></tr><tr><td>Body mass index (BMI) [Ratio]</td><td>27.6 kg/m2</td><td>27.6 kg/m2</td></tr><tr><td>Diastolic Blood Pressure</td><td>61 mm[Hg]</td><td>61 mm[Hg]</td></tr><tr><td>Systolic Blood Pressure</td><td>107 mm[Hg]</td><td>104 mm[Hg]</td></tr><tr><td>Heart rate</td><td>74 /min</td><td>94 /min</td></tr><tr><td>Respiratory rate</td><td>15 /min</td><td>14 /min</td></tr></table></div>"},"entry":[{"reference":"urn:uuid:1a32f39b-9b49-4273-bcca-2092eb4f49c3"},{"reference":"urn:uuid:18ba106b-7ef8-4669-9ba7-6a46ddf0efd4"},{"reference":"urn:uuid:88b76d5b-f142-48e6-ba61-d61e0f50819a"},{"reference":"urn:uuid:81c5100f-71cd-47a8-9257-0889608ca452"},{"reference":"urn:uuid:f4b40c2a-ae47-442a-a5d9-b7bb84f0a8a6"},{"reference":"urn:uuid:a56b4fab-1cb0-4732-9145-a9045945ba76"},{"reference":"urn:uuid:e1efd0e6-c5e2-4f58-92a4-f9a19fed40af"},{"reference":"urn:uuid:4d8489c3-2433-4e60-b8b2-24655f9f22db"},{"reference":"urn:uuid:ca99cb8e-49ef-4b8d-bf4e-1dcc2c434aa7"},{"reference":"urn:uuid:8f174476-b6e0-4224-9d62-2c980d2bc820"},{"reference":"urn:uuid:939be216-8292-4e98-a579-3af84069116b"},{"reference":"urn:uuid:fb89373b-bd0b-4b32-8ae6-a39aad6f71fa"},{"reference":"urn:uuid:44ced184-c2eb-43eb-8fb7-506a3ba785b0"},{"reference":"urn:uuid:1a1e24fe-c93f-4d73-b3cc-d2e0e2f33bd9"},{"reference":"urn:uuid:7b295205-f028-433d-9409-9048a0d6e550"},{"reference":"urn:uuid:89c1b4be-7149-483b-8e1d-4f1482ac24b0"}]},{"title":"Relevant diagnostic tests/laboratory data","code":{"coding":[{"system":"http://loinc.org","code":"30954-2","display":"Relevant diagnostic tests/laboratory data note"}]},"text":{"status":"generated","div":"<div xmlns=\"http://www.w3.org/1999/xhtml\"><table class=\"hl7__ips\"><table class=\"hl7__ips\"><thead><tr><th>Recent Lab Observations</th><th>16 Aug 2023</th><th>Reference Range</th><th>Unit</th></tr></thead><tbody><tr><td>Glucose [Mass/volume] in Blood</td><td>95.7</td><td>70 - 140</td><td>mg/dL</td></tr><tr><td>Urea nitrogen [Mass/volume] in Blood</td><td>9.3</td><td>7 - 20</td><td>mg/dL</td></tr><tr><td>Creatinine [Mass/volume] in Blood</td><td><strong>3.4 H</strong></td><td>0.9 - 1.3</td><td>mg/dL</td></tr><tr><td>Calcium [Mass/volume] in Blood</td><td>9.1</td><td>8.5 - 10.5</td><td>mg/dL</td></tr><tr><td>Sodium [Moles/volume] in Blood</td><td>143.5</td><td>135 - 145</td><td>mmol/L</td></tr><tr><td>Potassium [Moles/volume] in Blood</td><td>4.1</td><td>3.5 - 5.3</td><td>mmol/L</td></tr><tr><td>Chloride [Moles/volume] in Blood</td><td>102.5</td><td>98 - 108</td><td>mmol/L</td></tr><tr><td>Carbon dioxide, total [Moles/volume] in Blood</td><td>24.1</td><td>22 - 29</td><td>mmol/L</td></tr><tr><td>Protein [Mass/volume] in Serum or Plasma</td><td>6.8</td><td>6 - 8.3</td><td>g/dL</td></tr><tr><td>Albumin [Mass/volume] in Serum or Plasma</td><td>4.4</td><td>3.2 - 5.5</td><td>g/dL</td></tr><tr><td>Globulin [Mass/volume] in Serum by calculation</td><td>2.0</td><td>1.5 - 3.5</td><td>g/L</td></tr><tr><td>Bilirubin.total [Mass/volume] in Serum or Plasma</td><td><strong>0.2 L</strong></td><td>0.3 - 1.2</td><td>mg/dL</td></tr><tr><td>Alkaline phosphatase [Enzymatic activity/volume] in Serum or Plasma</td><td>96.6</td><td>39 - 130</td><td>U/L</td></tr><tr><td>Alanine aminotransferase [Enzymatic activity/volume] in Serum or Plasma</td><td>58.9</td><td>34 - 63</td><td>U/L</td></tr><tr><td>Aspartate aminotransferase [Enzymatic activity/volume] in Serum or Plasma</td><td>18.8</td><td>10 - 48</td><td>U/L</td></tr><tr><td>Cholesterol [Mass/volume] in Serum or Plasma</td><td>151.9</td><td>125 - 200</td><td>mg/dL</td></tr><tr><td>Triglyceride [Mass/volume] in Serum or Plasma</td><td>130.0</td><td>0 - 150</td><td>mg/dL</td></tr><tr><td>Cholesterol in LDL [Mass/volume] in Serum or Plasma by Direct assay</td><td>126.4</td><td>0 - 130</td><td>mg/dL</td></tr><tr><td>Cholesterol in HDL [Mass/volume] in Serum or Plasma</td><td><strong>37.3 L</strong></td><td>40 - 60</td><td>mg/dL</td></tr></tbody></table></table></div>"},"entry":[{"reference":"urn:uuid:3769b2c8-dc1c-4d81-aa13-f59ee5bdfa30"},{"reference":"urn:uuid:634f31ad-e825-4787-92e0-7488c6be942b"},{"reference":"urn:uuid:43c75d44-ccfd-4a03-9f76-09ce1dbfda89"},{"reference":"urn:uuid:9f967d54-b75c-4d6d-8049-ebf9d8b0ae25"},{"reference":"urn:uuid:bf1d0965-be59-4e25-82f9-674ed172977e"},{"reference":"urn:uuid:a3be6062-a3e4-43cc-98a4-9d5a97d2a6f4"},{"reference":"urn:uuid:96e4eb8b-71c8-4a3c-9e67-c099d52830fc"},{"reference":"urn:uuid:d8bf06a3-994b-4af8-8fcc-acf64e4c2368"},{"reference":"urn:uuid:ea4d423d-f6ea-494c-8ffc-b23c139eaf26"},{"reference":"urn:uuid:1681586e-24f3-4480-9ac7-a44ef213c70c"},{"reference":"urn:uuid:9a21e382-7d46-433c-a97c-863d9dceff24"},{"reference":"urn:uuid:80c86879-5230-4914-a279-6cc890a9d890"},{"reference":"urn:uuid:7609b543-21d2-4b81-a9da-d85879ed9737"},{"reference":"urn:uuid:566124b7-205f-4e83-9d50-9c79f2dda171"},{"reference":"urn:uuid:7f4db609-0992-4b56-8ef1-69882aa95519"},{"reference":"urn:uuid:0d60eb4f-b407-4ec1-8d96-2744cb8fc1ec"},{"reference":"urn:uuid:8b46f7cc-99a9-4d7b-91c1-4c6167e2bdf9"},{"reference":"urn:uuid:b021b76c-a7ae-4977-81b8-4c7978657b13"},{"reference":"urn:uuid:b4e2d930-9b21-4906-b770-a12dfdbc770c"}]},{"title":"Device Use","code":{"coding":[{"system":"http://loinc.org","code":"46264-8","display":"History of medical device use"}]},"text":{"status":"generated","div":"<div xmlns=\"http://www.w3.org/1999/xhtml\"><table class=\"hl7__ips\"><tr><th>Device</th><th>Date (since)</th></tr><tr><td>Blood glucose meter (physical object)</td><td><span class=\"nb\">1997-03-16</span></td></tr></table></div>"},"entry":[{"reference":"urn:uuid:8557ff24-1dc7-4ccd-b042-eb6bb93388f6"}]}]}},{"fullUrl":"urn:uuid:538f125e-f171-4ec3-b018-8a23e0f06828","resource":{"resourceType":"Patient","id":"538f125e-f171-4ec3-b018-8a23e0f06828","meta":{"profile":["http://hl7.eu/fhir/eps/StructureDefinition/patient-eu-eps"]},"text":{"status":"generated","div":"<div xmlns=\"http://www.w3.org/1999/xhtml\"><a name=\"Patient_538f125e-f171-4ec3-b018-8a23e0f06828\"> </a><table class=\"hl7__ips\"><tr><td>Ludwig Wallin</td><td>1950-03-02</td></tr></table></div>"},"identifier":[{"type":{"coding":[{"system":"http://terminology.hl7.org/CodeSystem/v2-0203","code":"JHN"}]},"system":"http://ec.europa.eu/identifier/eci","value":"9794-440367-0"},{"type":{"coding":[{"system":"http://terminology.hl7.org/CodeSystem/v2-0203","code":"MR"}]},"system":"http://local.setting.eu/identifier","value":"b4bf618f-19a1-be0c-3ed7-7f5f22af4746"}],"name":[{"text":"Ludwig Wallin","family":"Wallin","given":["Ludwig"]}],"telecom":[{"system":"phone","value":"+46 0295-9350042"}],"gender":"male","birthDate":"1950-03-02","address":[{"use":"home","type":"physical","line":["Föreningsgatan 34"],"city":"Tobo","postalCode":"740 61","country":"Sweden"}]}},{"fullUrl":"urn:uuid:49f63d3b-4f76-4605-a3bd-e8d7d09213a4","resource":{"resourceType":"PractitionerRole","id":"49f63d3b-4f76-4605-a3bd-e8d7d09213a4","meta":{"profile":["http://hl7.eu/fhir/base/StructureDefinition/practitionerRole-eu"]},"text":{"status":"generated","div":"<div xmlns=\"http://www.w3.org/1999/xhtml\"><a name=\"PractitionerRole_49f63d3b-4f76-4605-a3bd-e8d7d09213a4\"> </a><p class=\"res-header-id\"><b>Generated Narrative: PractitionerRole 49f63d3b-4f76-4605-a3bd-e8d7d09213a4</b></p><a name=\"49f63d3b-4f76-4605-a3bd-e8d7d09213a4\"> </a><a name=\"hc49f63d3b-4f76-4605-a3bd-e8d7d09213a4\"> </a><div style=\"display: inline-block; background-color: #d9e0e7; padding: 6px; margin: 4px; border: 1px solid #8da1b4; border-radius: 5px; line-height: 60%\"><p style=\"margin-bottom: 0px\"/><p style=\"margin-bottom: 0px\">Profile: <a href=\"https://build.fhir.org/ig/hl7-eu/base/StructureDefinition-practitionerRole-eu.html\">PractitionerRole (EU base)</a></p></div><p><b>practitioner</b>: <a href=\"Bundle-Instance-Bundle-fc1c3ac6-c97e-4fa5-96f7-a3a443b45be3.html#urn-uuid-6e787181-40ca-4b8c-b4f6-62db3433ad52\">Practitioner Hel Ping </a></p><p><b>organization</b>: <a href=\"Bundle-Instance-Bundle-fc1c3ac6-c97e-4fa5-96f7-a3a443b45be3.html#urn-uuid-16b98421-4542-49ce-a5e9-7c458447e0f1\">Organization Gävle Sjukhus ingång 25</a></p></div>"},"practitioner":{"reference":"urn:uuid:6e787181-40ca-4b8c-b4f6-62db3433ad52"},"organization":{"reference":"urn:uuid:16b98421-4542-49ce-a5e9-7c458447e0f1"}}},{"fullUrl":"urn:uuid:6e787181-40ca-4b8c-b4f6-62db3433ad52","resource":{"resourceType":"Practitioner","id":"6e787181-40ca-4b8c-b4f6-62db3433ad52","meta":{"profile":["http://hl7.eu/fhir/base/StructureDefinition/practitioner-eu"]},"text":{"status":"generated","div":"<div xmlns=\"http://www.w3.org/1999/xhtml\"><a name=\"Practitioner_6e787181-40ca-4b8c-b4f6-62db3433ad52\"> </a><p class=\"res-header-id\"><b>Generated Narrative: Practitioner 6e787181-40ca-4b8c-b4f6-62db3433ad52</b></p><a name=\"6e787181-40ca-4b8c-b4f6-62db3433ad52\"> </a><a name=\"hc6e787181-40ca-4b8c-b4f6-62db3433ad52\"> </a><div style=\"display: inline-block; background-color: #d9e0e7; padding: 6px; margin: 4px; border: 1px solid #8da1b4; border-radius: 5px; line-height: 60%\"><p style=\"margin-bottom: 0px\"/><p style=\"margin-bottom: 0px\">Profile: <a href=\"https://build.fhir.org/ig/hl7-eu/base/StructureDefinition-practitioner-eu.html\">Practitioner (EU base)</a></p></div><p><b>name</b>: Hel Ping </p></div>"},"name":[{"family":"Ping","given":["Hel"],"prefix":["Dr."]}]}},{"fullUrl":"urn:uuid:16b98421-4542-49ce-a5e9-7c458447e0f1","resource":{"resourceType":"Organization","id":"16b98421-4542-49ce-a5e9-7c458447e0f1","meta":{"profile":["http://hl7.eu/fhir/base/StructureDefinition/organization-eu"]},"text":{"status":"generated","div":"<div xmlns=\"http://www.w3.org/1999/xhtml\"><a name=\"Organization_16b98421-4542-49ce-a5e9-7c458447e0f1\"> </a><p class=\"res-header-id\"><b>Generated Narrative: Organization 16b98421-4542-49ce-a5e9-7c458447e0f1</b></p><a name=\"16b98421-4542-49ce-a5e9-7c458447e0f1\"> </a><a name=\"hc16b98421-4542-49ce-a5e9-7c458447e0f1\"> </a><div style=\"display: inline-block; background-color: #d9e0e7; padding: 6px; margin: 4px; border: 1px solid #8da1b4; border-radius: 5px; line-height: 60%\"><p style=\"margin-bottom: 0px\"/><p style=\"margin-bottom: 0px\">Profile: <a href=\"https://build.fhir.org/ig/hl7-eu/base/StructureDefinition-organization-eu.html\">Organization (EU base)</a></p></div><p><b>identifier</b>: <code>urn:oid:2.16.840.1.113883.2.51.999</code>/fd6dc3a5-1da0-4c3e-afce-2be123ccc0c6</p><p><b>name</b>: Gävle Sjukhus ingång 25</p><p><b>address</b>: Gävle 803 24 Sweden </p></div>"},"identifier":[{"system":"urn:oid:2.16.840.1.113883.2.51.999","value":"fd6dc3a5-1da0-4c3e-afce-2be123ccc0c6","assigner":{"display":"HL7 Europe"}}],"name":"Gävle Sjukhus ingång 25","address":[{"city":"Gävle","postalCode":"803 24","country":"Sweden"}]}},{"fullUrl":"urn:uuid:e1504890-3ef4-4e1c-acf4-530df04379d2","resource":{"resourceType":"Condition","id":"e1504890-3ef4-4e1c-acf4-530df04379d2","meta":{"profile":["http://hl7.org/fhir/uv/ips/StructureDefinition/Condition-uv-ips"]},"text":{"status":"generated","div":"<div xmlns=\"http://www.w3.org/1999/xhtml\"><a name=\"Condition_e1504890-3ef4-4e1c-acf4-530df04379d2\"> </a><table class=\"hl7__ips\"><tr><td>Hyperlipidemia</td><td><span class=\"nb\">2020-07-26</span></td><td>active</td></tr></table></div>"},"clinicalStatus":{"coding":[{"system":"http://terminology.hl7.org/CodeSystem/condition-clinical","code":"active"}]},"category":[{"coding":[{"system":"http://terminology.hl7.org/CodeSystem/condition-category","code":"problem-list-item","display":"Problem List Item"}]}],"code":{"coding":[{"system":"http://snomed.info/sct","code":"55822004","display":"Hyperlipidemia (disorder)"}],"text":"Hyperlipidemia"},"subject":{"reference":"urn:uuid:538f125e-f171-4ec3-b018-8a23e0f06828","display":"Ludwig Wallin"},"onsetDateTime":"2020-07-26","asserter":{"reference":"urn:uuid:6e787181-40ca-4b8c-b4f6-62db3433ad52","display":"Dr. Hel Ping"}}},{"fullUrl":"urn:uuid:319ceb88-67a2-4e72-8763-f6bf2c75c4c3","resource":{"resourceType":"Condition","id":"319ceb88-67a2-4e72-8763-f6bf2c75c4c3","meta":{"profile":["http://hl7.org/fhir/uv/ips/StructureDefinition/Condition-uv-ips"]},"text":{"status":"generated","div":"<div xmlns=\"http://www.w3.org/1999/xhtml\"><a name=\"Condition_319ceb88-67a2-4e72-8763-f6bf2c75c4c3\"> </a><table class=\"hl7__ips\"><tr><td>Ischemic heart disease</td><td><span class=\"nb\">2020-07-26</span></td><td>active</td></tr></table></div>"},"clinicalStatus":{"coding":[{"system":"http://terminology.hl7.org/CodeSystem/condition-clinical","code":"active"}]},"category":[{"coding":[{"system":"http://terminology.hl7.org/CodeSystem/condition-category","code":"problem-list-item","display":"Problem List Item"}]}],"code":{"coding":[{"system":"http://snomed.info/sct","code":"414545008","display":"Ischemic heart disease (disorder)"}],"text":"Ischemic heart disease"},"subject":{"reference":"urn:uuid:538f125e-f171-4ec3-b018-8a23e0f06828","display":"Ludwig Wallin"},"onsetDateTime":"2020-07-26","asserter":{"reference":"urn:uuid:6e787181-40ca-4b8c-b4f6-62db3433ad52","display":"Dr. Hel Ping"}}},{"fullUrl":"urn:uuid:aadc4c52-563d-499e-986a-1fa6aff4de71","resource":{"resourceType":"Condition","id":"aadc4c52-563d-499e-986a-1fa6aff4de71","meta":{"profile":["http://hl7.org/fhir/uv/ips/StructureDefinition/Condition-uv-ips"]},"text":{"status":"generated","div":"<div xmlns=\"http://www.w3.org/1999/xhtml\"><a name=\"Condition_aadc4c52-563d-499e-986a-1fa6aff4de71\"> </a><table class=\"hl7__ips\"><tr><td>Anemia</td><td><span class=\"nb\">2002-04-14</span></td><td>active</td></tr></table></div>"},"clinicalStatus":{"coding":[{"system":"http://terminology.hl7.org/CodeSystem/condition-clinical","code":"active"}]},"category":[{"coding":[{"system":"http://terminology.hl7.org/CodeSystem/condition-category","code":"problem-list-item","display":"Problem List Item"}]}],"code":{"coding":[{"system":"http://snomed.info/sct","code":"271737000","display":"Anemia (disorder)"}],"text":"Anemia"},"subject":{"reference":"urn:uuid:538f125e-f171-4ec3-b018-8a23e0f06828","display":"Ludwig Wallin"},"onsetDateTime":"2002-04-14","asserter":{"reference":"urn:uuid:6e787181-40ca-4b8c-b4f6-62db3433ad52","display":"Dr. Hel Ping"}}},{"fullUrl":"urn:uuid:42b021b7-6ef8-46b2-889b-775784dbf532","resource":{"resourceType":"Condition","id":"42b021b7-6ef8-46b2-889b-775784dbf532","meta":{"profile":["http://hl7.org/fhir/uv/ips/StructureDefinition/Condition-uv-ips"]},"text":{"status":"generated","div":"<div xmlns=\"http://www.w3.org/1999/xhtml\"><a name=\"Condition_42b021b7-6ef8-46b2-889b-775784dbf532\"> </a><table class=\"hl7__ips\"><tr><td>Prediabetes</td><td><span class=\"nb\">1997-03-16</span></td><td>active</td></tr></table></div>"},"clinicalStatus":{"coding":[{"system":"http://terminology.hl7.org/CodeSystem/condition-clinical","code":"active"}]},"category":[{"coding":[{"system":"http://terminology.hl7.org/CodeSystem/condition-category","code":"problem-list-item","display":"Problem List Item"}]}],"code":{"coding":[{"system":"http://snomed.info/sct","code":"15777000","display":"Prediabetes (disorder)"}],"text":"Prediabetes"},"subject":{"reference":"urn:uuid:538f125e-f171-4ec3-b018-8a23e0f06828","display":"Ludwig Wallin"},"onsetDateTime":"1997-03-16","asserter":{"reference":"urn:uuid:6e787181-40ca-4b8c-b4f6-62db3433ad52","display":"Dr. Hel Ping"}}},{"fullUrl":"urn:uuid:d60663c9-51d4-4732-9b10-28625dd1f140","resource":{"resourceType":"Condition","id":"d60663c9-51d4-4732-9b10-28625dd1f140","meta":{"profile":["http://hl7.org/fhir/uv/ips/StructureDefinition/Condition-uv-ips"]},"text":{"status":"generated","div":"<div xmlns=\"http://www.w3.org/1999/xhtml\"><a name=\"Condition_d60663c9-51d4-4732-9b10-28625dd1f140\"> </a><table class=\"hl7__ips\"><tr><td><span class=\"grayedout\">Viral sinusitis</span></td><td><span class=\"nb\">2023-12-19 – 2023-12-26</span></td><td><span class=\"grayedout\">inactive</span></td></tr></table></div>"},"clinicalStatus":{"coding":[{"system":"http://terminology.hl7.org/CodeSystem/condition-clinical","code":"inactive"}]},"category":[{"coding":[{"system":"http://terminology.hl7.org/CodeSystem/condition-category","code":"problem-list-item","display":"Problem List Item"}]}],"code":{"coding":[{"system":"http://snomed.info/sct","code":"444814009","display":"Viral sinusitis (disorder)"}],"text":"Viral sinusitis"},"subject":{"reference":"urn:uuid:538f125e-f171-4ec3-b018-8a23e0f06828","display":"Ludwig Wallin"},"onsetDateTime":"2023-12-19","abatementDateTime":"2023-12-26","asserter":{"reference":"urn:uuid:6e787181-40ca-4b8c-b4f6-62db3433ad52","display":"Dr. Hel Ping"}}},{"fullUrl":"urn:uuid:e8779d67-d033-47b4-b707-39c7135cc6f8","resource":{"resourceType":"Condition","id":"e8779d67-d033-47b4-b707-39c7135cc6f8","meta":{"profile":["http://hl7.org/fhir/uv/ips/StructureDefinition/Condition-uv-ips"]},"text":{"status":"generated","div":"<div xmlns=\"http://www.w3.org/1999/xhtml\"><a name=\"Condition_e8779d67-d033-47b4-b707-39c7135cc6f8\"> </a><table class=\"hl7__ips\"><tr><td><span class=\"grayedout\">Laceration of hand</span></td><td><span class=\"nb\">2021-09-08 – 2021-10-04</span></td><td><span class=\"grayedout\">inactive</span></td></tr></table></div>"},"clinicalStatus":{"coding":[{"system":"http://terminology.hl7.org/CodeSystem/condition-clinical","code":"inactive"}]},"category":[{"coding":[{"system":"http://terminology.hl7.org/CodeSystem/condition-category","code":"problem-list-item","display":"Problem List Item"}]}],"code":{"coding":[{"system":"http://snomed.info/sct","code":"284549007","display":"Laceration of hand (disorder)"}],"text":"Laceration of hand"},"subject":{"reference":"urn:uuid:538f125e-f171-4ec3-b018-8a23e0f06828","display":"Ludwig Wallin"},"onsetDateTime":"2021-09-08","abatementDateTime":"2021-10-04","asserter":{"reference":"urn:uuid:6e787181-40ca-4b8c-b4f6-62db3433ad52","display":"Dr. Hel Ping"}}},{"fullUrl":"urn:uuid:e888cadb-3d5e-405f-8ad7-fa1f4c22dd03","resource":{"resourceType":"Condition","id":"e888cadb-3d5e-405f-8ad7-fa1f4c22dd03","meta":{"profile":["http://hl7.org/fhir/uv/ips/StructureDefinition/Condition-uv-ips"]},"text":{"status":"generated","div":"<div xmlns=\"http://www.w3.org/1999/xhtml\"><a name=\"Condition_e888cadb-3d5e-405f-8ad7-fa1f4c22dd03\"> </a><table class=\"hl7__ips\"><tr><td><span class=\"grayedout\">Laceration - injury</span></td><td><span class=\"nb\">2021-09-08 – 2021-10-04</span></td><td><span class=\"grayedout\">inactive</span></td></tr></table></div>"},"clinicalStatus":{"coding":[{"system":"http://terminology.hl7.org/CodeSystem/condition-clinical","code":"inactive"}]},"category":[{"coding":[{"system":"http://terminology.hl7.org/CodeSystem/condition-category","code":"problem-list-item","display":"Problem List Item"}]}],"code":{"coding":[{"system":"http://snomed.info/sct","code":"312608009","display":"Laceration - injury (disorder)"}],"text":"Laceration - injury"},"subject":{"reference":"urn:uuid:538f125e-f171-4ec3-b018-8a23e0f06828","display":"Ludwig Wallin"},"onsetDateTime":"2021-09-08","abatementDateTime":"2021-10-04","asserter":{"reference":"urn:uuid:6e787181-40ca-4b8c-b4f6-62db3433ad52","display":"Dr. Hel Ping"}}},{"fullUrl":"urn:uuid:8c207d99-e4ee-4132-ab1d-9c8b3c4ec878","resource":{"resourceType":"Condition","id":"8c207d99-e4ee-4132-ab1d-9c8b3c4ec878","meta":{"profile":["http://hl7.org/fhir/uv/ips/StructureDefinition/Condition-uv-ips"]},"text":{"status":"generated","div":"<div xmlns=\"http://www.w3.org/1999/xhtml\"><a name=\"Condition_8c207d99-e4ee-4132-ab1d-9c8b3c4ec878\"> </a><table class=\"hl7__ips\"><tr><td><span class=\"grayedout\">COVID-19</span></td><td><span class=\"nb\">2020-11-28 – 2020-12-29</span></td><td><span class=\"grayedout\">inactive</span></td></tr></table></div>"},"clinicalStatus":{"coding":[{"system":"http://terminology.hl7.org/CodeSystem/condition-clinical","code":"inactive"}]},"category":[{"coding":[{"system":"http://terminology.hl7.org/CodeSystem/condition-category","code":"problem-list-item","display":"Problem List Item"}]}],"code":{"coding":[{"system":"http://snomed.info/sct","code":"840539006","display":"Disease caused by severe acute respiratory syndrome coronavirus 2 (disorder)"}],"text":"COVID-19"},"subject":{"reference":"urn:uuid:538f125e-f171-4ec3-b018-8a23e0f06828","display":"Ludwig Wallin"},"onsetDateTime":"2020-11-28","abatementDateTime":"2020-12-29","asserter":{"reference":"urn:uuid:6e787181-40ca-4b8c-b4f6-62db3433ad52","display":"Dr. Hel Ping"}}},{"fullUrl":"urn:uuid:c51f0322-04a3-467a-821d-de1b71ec3674","resource":{"resourceType":"Medication","id":"c51f0322-04a3-467a-821d-de1b71ec3674","meta":{"profile":["http://hl7.eu/fhir/eps/StructureDefinition/Medication-eu-eps"]},"text":{"status":"generated","div":"<div xmlns=\"http://www.w3.org/1999/xhtml\"><a name=\"Medication_c51f0322-04a3-467a-821d-de1b71ec3674\"> </a>Simvastatin 10 mg oral tablet, Oral tablet</div>"},"code":{"coding":[{"system":"http://www.nlm.nih.gov/research/umls/rxnorm","code":"314231","display":"simvastatin 10 MG Oral Tablet"},{"system":"http://snomed.info/sct","code":"319996000","display":"Product containing precisely simvastatin 10 milligram/1 each conventional release oral tablet (clinical drug)"}],"text":"Simvastatin 10 mg oral tablet"},"form":{"coding":[{"system":"http://snomed.info/sct","code":"421026006","display":"Oral tablet\n"}]},"ingredient":[{"itemCodeableConcept":{"coding":[{"system":"http://snomed.info/sct","code":"387584000","display":"Simvastatin"}]},"isActive":true}]}},{"fullUrl":"urn:uuid:be605cbd-5464-44e5-8505-112b63e4476e","resource":{"resourceType":"MedicationStatement","id":"be605cbd-5464-44e5-8505-112b63e4476e","meta":{"profile":["http://hl7.eu/fhir/eps/StructureDefinition/MedicationStatement-eu-eps"]},"text":{"status":"generated","div":"<div xmlns=\"http://www.w3.org/1999/xhtml\"><a name=\"MedicationStatement_be605cbd-5464-44e5-8505-112b63e4476e\"> </a><table class=\"hl7__ips\"><tr><td>Simvastatin 10 mg oral tablet</td><td><span class=\"nb\">2024-08-25</span></td><td>Oral tablet</td><td>1 tablet (10 mg) by mouth once daily</td><td>Hyperlipidemia</td></tr></table></div>"},"status":"active","medicationReference":{"reference":"urn:uuid:c51f0322-04a3-467a-821d-de1b71ec3674","display":"Simvastatin 10 mg oral tablet"},"subject":{"reference":"urn:uuid:538f125e-f171-4ec3-b018-8a23e0f06828","display":"Ludwig Wallin"},"effectivePeriod":{"start":"2024-08-25"},"reasonCode":[{"coding":[{"system":"http://snomed.info/sct","code":"55822004","display":"Hyperlipidemia"}]}],"dosage":[{"text":"1 tablet (10 mg) by mouth once daily","timing":{"repeat":{"frequency":1,"period":1,"periodUnit":"d"}},"asNeededBoolean":false,"doseAndRate":[{"doseQuantity":{"value":1,"unit":"{tbl}","code":"{tbl}"}}]}]}},{"fullUrl":"urn:uuid:1e68ffb2-93da-438e-8868-fcbd1ab0f907","resource":{"resourceType":"Medication","id":"1e68ffb2-93da-438e-8868-fcbd1ab0f907","meta":{"profile":["http://hl7.eu/fhir/eps/StructureDefinition/Medication-eu-eps"]},"text":{"status":"generated","div":"<div xmlns=\"http://www.w3.org/1999/xhtml\"><a name=\"Medication_1e68ffb2-93da-438e-8868-fcbd1ab0f907\"> </a>Clopidogrel (as clopidogrel bisulfate) 75 mg oral tablet, Oral tablet</div>"},"code":{"coding":[{"system":"http://www.nlm.nih.gov/research/umls/rxnorm","code":"309362","display":"clopidogrel 75 MG Oral Tablet"},{"system":"http://snomed.info/sct","code":"783586007","display":"Product containing precisely clopidogrel (as clopidogrel bisulfate) 75 milligram/1 each conventional release oral tablet (clinical drug)"}],"text":"Clopidogrel (as clopidogrel bisulfate) 75 mg oral tablet"},"form":{"coding":[{"system":"http://snomed.info/sct","code":"421026006","display":"Oral tablet\n"}]},"ingredient":[{"itemCodeableConcept":{"coding":[{"system":"http://snomed.info/sct","code":"412354008","display":"Clopidogrel bisulfate"}]},"isActive":true}]}},{"fullUrl":"urn:uuid:8cbe1169-5931-46d3-9ae0-c0d5cc70e095","resource":{"resourceType":"MedicationStatement","id":"8cbe1169-5931-46d3-9ae0-c0d5cc70e095","meta":{"profile":["http://hl7.eu/fhir/eps/StructureDefinition/MedicationStatement-eu-eps"]},"text":{"status":"generated","div":"<div xmlns=\"http://www.w3.org/1999/xhtml\"><a name=\"MedicationStatement_8cbe1169-5931-46d3-9ae0-c0d5cc70e095\"> </a><table class=\"hl7__ips\"><tr><td>Clopidogrel (as clopidogrel bisulfate) 75 mg oral tablet</td><td><span class=\"nb\">2020-08-02</span></td><td>Oral tablet</td><td>1 tablet (75 mg) once daily</td><td/></tr></table></div>"},"status":"active","medicationReference":{"reference":"urn:uuid:1e68ffb2-93da-438e-8868-fcbd1ab0f907","display":"Clopidogrel (as clopidogrel bisulfate) 75 mg oral tablet"},"subject":{"reference":"urn:uuid:538f125e-f171-4ec3-b018-8a23e0f06828","display":"Ludwig Wallin"},"effectivePeriod":{"start":"2020-08-02"},"dosage":[{"text":"1 tablet (75 mg) once daily","timing":{"repeat":{"frequency":1,"period":1,"periodUnit":"d"}},"asNeededBoolean":false,"doseAndRate":[{"doseQuantity":{"value":1,"unit":"{tbl}","code":"{tbl}"}}]}]}},{"fullUrl":"urn:uuid:bf02ce7e-905e-43de-a3ec-8e37fdfbe915","resource":{"resourceType":"Medication","id":"bf02ce7e-905e-43de-a3ec-8e37fdfbe915","meta":{"profile":["http://hl7.eu/fhir/eps/StructureDefinition/Medication-eu-eps"]},"text":{"status":"generated","div":"<div xmlns=\"http://www.w3.org/1999/xhtml\"><a name=\"Medication_bf02ce7e-905e-43de-a3ec-8e37fdfbe915\"> </a>Simvastatin 20 mg oral tablet, Oral tablet</div>"},"code":{"coding":[{"system":"http://www.nlm.nih.gov/research/umls/rxnorm","code":"312961","display":"simvastatin 20 MG Oral Tablet"},{"system":"http://snomed.info/sct","code":"319997009","display":"Product containing precisely simvastatin 20 milligram/1 each conventional release oral tablet (clinical drug)"}],"text":"Simvastatin 20 mg oral tablet"},"form":{"coding":[{"system":"http://snomed.info/sct","code":"421026006","display":"Oral tablet\n"}]},"ingredient":[{"itemCodeableConcept":{"coding":[{"system":"http://snomed.info/sct","code":"387584000","display":"Simvastatin"}]},"isActive":true}]}},{"fullUrl":"urn:uuid:a8c8ce9a-675b-42a6-95b4-3e0eb851bf60","resource":{"resourceType":"MedicationStatement","id":"a8c8ce9a-675b-42a6-95b4-3e0eb851bf60","meta":{"profile":["http://hl7.eu/fhir/eps/StructureDefinition/MedicationStatement-eu-eps"]},"text":{"status":"generated","div":"<div xmlns=\"http://www.w3.org/1999/xhtml\"><a name=\"MedicationStatement_a8c8ce9a-675b-42a6-95b4-3e0eb851bf60\"> </a><table class=\"hl7__ips\"><tr><td>Simvastatin 20 mg oral tablet</td><td><span class=\"nb\">2020-08-02</span></td><td>Oral tablet</td><td>1 tablet (20 mg) by mouth once daily</td><td/></tr></table></div>"},"status":"active","medicationReference":{"reference":"urn:uuid:bf02ce7e-905e-43de-a3ec-8e37fdfbe915","display":"Simvastatin 20 mg oral tablet"},"subject":{"reference":"urn:uuid:538f125e-f171-4ec3-b018-8a23e0f06828","display":"Ludwig Wallin"},"effectivePeriod":{"start":"2020-08-02"},"dosage":[{"text":"1 tablet (20 mg) by mouth once daily","timing":{"repeat":{"frequency":1,"period":1,"periodUnit":"d"}},"asNeededBoolean":false,"doseAndRate":[{"doseQuantity":{"value":1,"unit":"{tbl}","code":"{tbl}"}}]}]}},{"fullUrl":"urn:uuid:44179f85-6c65-45ef-9c5d-7d45d76b1805","resource":{"resourceType":"Medication","id":"44179f85-6c65-45ef-9c5d-7d45d76b1805","meta":{"profile":["http://hl7.eu/fhir/eps/StructureDefinition/Medication-eu-eps"]},"text":{"status":"generated","div":"<div xmlns=\"http://www.w3.org/1999/xhtml\"><a name=\"Medication_44179f85-6c65-45ef-9c5d-7d45d76b1805\"> </a>Nitroglycerin 400 microgram/actuation sublingual spray, Sublingual spray</div>"},"code":{"coding":[{"system":"http://www.nlm.nih.gov/research/umls/rxnorm","code":"705129","display":"nitroglycerin 0.4 MG/ACTUAT Mucosal Spray"},{"system":"http://snomed.info/sct","code":"425176000","display":"Product containing precisely glyceryl trinitrate 400 microgram/1 actuation conventional release sublingual spray (clinical drug)"}],"text":"Nitroglycerin 400 microgram/actuation sublingual spray"},"form":{"coding":[{"system":"http://snomed.info/sct","code":"385074009","display":"Sublingual spray\n"}]},"ingredient":[{"itemCodeableConcept":{"coding":[{"system":"http://snomed.info/sct","code":"387404004","display":"Glyceryl trinitrate"}]},"isActive":true}]}},{"fullUrl":"urn:uuid:51d9bda8-ab36-4532-87f5-778eed9500c9","resource":{"resourceType":"MedicationStatement","id":"51d9bda8-ab36-4532-87f5-778eed9500c9","meta":{"profile":["http://hl7.eu/fhir/eps/StructureDefinition/MedicationStatement-eu-eps"]},"text":{"status":"generated","div":"<div xmlns=\"http://www.w3.org/1999/xhtml\"><a name=\"MedicationStatement_51d9bda8-ab36-4532-87f5-778eed9500c9\"> </a><table class=\"hl7__ips\"><tr><td>Nitroglycerin 400 microgram/actuation sublingual spray</td><td><span class=\"nb\">2020-08-02</span></td><td>Sublingual spray</td><td>400 micrograms per spray, 1 spray under the tongue as needed for chest pain, may repeat every 5 minutes as needed, up to 3 sprays in 15 minutes</td><td/></tr></table></div>"},"status":"active","medicationReference":{"reference":"urn:uuid:44179f85-6c65-45ef-9c5d-7d45d76b1805","display":"Nitroglycerin 400 microgram/actuation sublingual spray"},"subject":{"reference":"urn:uuid:538f125e-f171-4ec3-b018-8a23e0f06828","display":"Ludwig Wallin"},"effectivePeriod":{"start":"2020-08-02"},"dosage":[{"text":"400 micrograms per spray, 1 spray under the tongue as needed for chest pain, may repeat every 5 minutes as needed, up to 3 sprays in 15 minutes","timing":{"repeat":{"frequency":1,"period":5,"periodUnit":"min"}},"asNeededBoolean":true,"doseAndRate":[{"doseQuantity":{"value":400,"unit":"microgram","code":"ug"}}]}]}},{"fullUrl":"urn:uuid:487123d0-ec4d-4663-b659-51a066e8bb8e","resource":{"resourceType":"Medication","id":"487123d0-ec4d-4663-b659-51a066e8bb8e","meta":{"profile":["http://hl7.eu/fhir/eps/StructureDefinition/Medication-eu-eps"]},"text":{"status":"generated","div":"<div xmlns=\"http://www.w3.org/1999/xhtml\"><a name=\"Medication_487123d0-ec4d-4663-b659-51a066e8bb8e\"> </a>Metoprolol tartrate (as metoprolol succinate) 100 mg prolonged-release oral tablet, Prolonged-release oral tablet</div>"},"code":{"coding":[{"system":"http://www.nlm.nih.gov/research/umls/rxnorm","code":"866412","display":"24 HR metoprolol succinate 100 MG Extended Release Oral Tablet"},{"system":"http://snomed.info/sct","code":"879980009","display":"Product containing precisely metoprolol tartrate (as metoprolol succinate) 100 milligram/1 each prolonged-release oral tablet (clinical drug)"}],"text":"Metoprolol tartrate (as metoprolol succinate) 100 mg prolonged-release oral tablet"},"form":{"coding":[{"system":"http://snomed.info/sct","code":"385060002","display":"Prolonged-release oral tablet\n"}]},"ingredient":[{"itemCodeableConcept":{"coding":[{"system":"http://snomed.info/sct","code":"412432007","display":"Metoprolol succinate"}]},"isActive":true}]}},{"fullUrl":"urn:uuid:f88d1363-b624-45cb-a182-71c4e415c5d2","resource":{"resourceType":"MedicationStatement","id":"f88d1363-b624-45cb-a182-71c4e415c5d2","meta":{"profile":["http://hl7.eu/fhir/eps/StructureDefinition/MedicationStatement-eu-eps"]},"text":{"status":"generated","div":"<div xmlns=\"http://www.w3.org/1999/xhtml\"><a name=\"MedicationStatement_f88d1363-b624-45cb-a182-71c4e415c5d2\"> </a><table class=\"hl7__ips\"><tr><td>Metoprolol tartrate (as metoprolol succinate) 100 mg prolonged-release oral tablet</td><td><span class=\"nb\">2020-08-02</span></td><td>Prolonged-release oral tablet</td><td>1 tablet (100 mg) once daily</td><td/></tr></table></div>"},"status":"active","medicationReference":{"reference":"urn:uuid:487123d0-ec4d-4663-b659-51a066e8bb8e","display":"Metoprolol tartrate (as metoprolol succinate) 100 mg prolonged-release oral tablet"},"subject":{"reference":"urn:uuid:538f125e-f171-4ec3-b018-8a23e0f06828","display":"Ludwig Wallin"},"effectivePeriod":{"start":"2020-08-02"},"dosage":[{"text":"1 tablet (100 mg) once daily","timing":{"repeat":{"frequency":1,"period":1,"periodUnit":"d"}},"asNeededBoolean":false,"doseAndRate":[{"doseQuantity":{"value":1,"unit":"{tbl}","code":"{tbl}"}}]}]}},{"fullUrl":"urn:uuid:00801b0c-dd23-4924-8a7e-ad43827123b3","resource":{"resourceType":"Immunization","id":"00801b0c-dd23-4924-8a7e-ad43827123b3","meta":{"profile":["http://hl7.org/fhir/uv/ips/StructureDefinition/Immunization-uv-ips"]},"text":{"status":"generated","div":"<div xmlns=\"http://www.w3.org/1999/xhtml\"><a name=\"Immunization_00801b0c-dd23-4924-8a7e-ad43827123b3\"> </a><table class=\"hl7__ips\"><tr><td>Influenza virus antigen only vaccine product</td><td><span class=\"nb\">2024-08-18</span></td></tr></table></div>"},"status":"completed","vaccineCode":{"coding":[{"system":"http://snomed.info/sct","code":"1181000221105","display":"Vaccine product containing only Influenza virus antigen (medicinal product)"},{"system":"http://www.whocc.no/atc","code":"J07BB02","display":"influenza, inactivated, split virus or surface antigen"},{"system":"http://hl7.org/fhir/sid/cvx","code":"140","display":"Influenza  seasonal  injectable  preservative free"}],"text":"Influenza virus antigen only vaccine product"},"patient":{"reference":"urn:uuid:538f125e-f171-4ec3-b018-8a23e0f06828","display":"Ludwig Wallin"},"occurrenceDateTime":"2024-08-18","lotNumber":"GN-mNSi7cG","expirationDate":"2024-10-03","site":{"coding":[{"system":"http://snomed.info/sct","code":"244979005","display":"Entire muscle of upper arm"}],"text":"Entire muscle of upper arm"},"route":{"coding":[{"system":"http://snomed.info/sct","code":"78421000","display":"Intramuscular route"}],"text":"Intramuscular route"}}},{"fullUrl":"urn:uuid:3269dd78-020e-430b-b02e-9be97c342e5d","resource":{"resourceType":"Immunization","id":"3269dd78-020e-430b-b02e-9be97c342e5d","meta":{"profile":["http://hl7.org/fhir/uv/ips/StructureDefinition/Immunization-uv-ips"]},"text":{"status":"generated","div":"<div xmlns=\"http://www.w3.org/1999/xhtml\"><a name=\"Immunization_3269dd78-020e-430b-b02e-9be97c342e5d\"> </a><table class=\"hl7__ips\"><tr><td>SARS-CoV-2 mRNA vaccine</td><td><span class=\"nb\">2021-03-14</span></td></tr></table></div>"},"status":"completed","vaccineCode":{"coding":[{"system":"http://snomed.info/sct","code":"1119349007","display":"Vaccine product containing SARS-CoV-2 mRNA"},{"system":"http://www.whocc.no/atc","code":"J07BX03","display":"COVID-19 mRNA vaccines"},{"system":"http://hl7.org/fhir/sid/cvx","code":"208","display":"SARS-COV-2 (COVID-19) vaccine  mRNA  spike protein  LNP  preservative free  30 mcg/0.3mL dose"}],"text":"SARS-CoV-2 mRNA vaccine"},"patient":{"reference":"urn:uuid:538f125e-f171-4ec3-b018-8a23e0f06828","display":"Ludwig Wallin"},"occurrenceDateTime":"2021-03-14","lotNumber":"GR-8n5r","expirationDate":"2022-01-06","site":{"coding":[{"system":"http://snomed.info/sct","code":"244979005","display":"Entire muscle of upper arm"}],"text":"Entire muscle of upper arm"},"route":{"coding":[{"system":"http://snomed.info/sct","code":"78421000","display":"Intramuscular route"}],"text":"Intramuscular route"}}},{"fullUrl":"urn:uuid:0a738cce-d3b1-4e03-849b-c539a75cd9f6","resource":{"resourceType":"Immunization","id":"0a738cce-d3b1-4e03-849b-c539a75cd9f6","meta":{"profile":["http://hl7.org/fhir/uv/ips/StructureDefinition/Immunization-uv-ips"]},"text":{"status":"generated","div":"<div xmlns=\"http://www.w3.org/1999/xhtml\"><a name=\"Immunization_0a738cce-d3b1-4e03-849b-c539a75cd9f6\"> </a><table class=\"hl7__ips\"><tr><td>Clostridium tetani toxoid antigen adsorbed only vaccine product</td><td><span class=\"nb\">2017-07-09</span></td></tr></table></div>"},"status":"completed","vaccineCode":{"coding":[{"system":"http://snomed.info/sct","code":"777725002","display":"Vaccine product containing only Clostridium tetani toxoid antigen adsorbed (medicinal product)"},{"system":"http://www.whocc.no/atc","code":"J07AM51","display":"tetanus toxoid, combinations with diphtheria toxoid"},{"system":"http://hl7.org/fhir/sid/cvx","code":"113","display":"Td (adult)  5 Lf tetanus toxoid  preservative free  adsorbed"}],"text":"Clostridium tetani toxoid antigen adsorbed only vaccine product"},"patient":{"reference":"urn:uuid:538f125e-f171-4ec3-b018-8a23e0f06828","display":"Ludwig Wallin"},"occurrenceDateTime":"2017-07-09","lotNumber":"CG-1HfDlI0","expirationDate":"2018-02-20","site":{"coding":[{"system":"http://snomed.info/sct","code":"244979005","display":"Entire muscle of upper arm"}],"text":"Entire muscle of upper arm"},"route":{"coding":[{"system":"http://snomed.info/sct","code":"78421000","display":"Intramuscular route"}],"text":"Intramuscular route"}}},{"fullUrl":"urn:uuid:fba5d169-c9dd-4b19-8027-1a9858ed881e","resource":{"resourceType":"AllergyIntolerance","id":"fba5d169-c9dd-4b19-8027-1a9858ed881e","meta":{"profile":["http://hl7.eu/fhir/eps/StructureDefinition/allergyIntolerance-eu-eps"]},"text":{"status":"generated","div":"<div xmlns=\"http://www.w3.org/1999/xhtml\"><a name=\"AllergyIntolerance_fba5d169-c9dd-4b19-8027-1a9858ed881e\"> </a><table class=\"hl7__ips\"><tr><td>No known allergies or intolerances</td></tr></table></div>"},"code":{"coding":[{"system":"http://snomed.info/sct","code":"716186003","display":"No known allergy (situation)"}]},"patient":{"reference":"urn:uuid:538f125e-f171-4ec3-b018-8a23e0f06828","display":"Ludwig Wallin"},"_onsetDateTime":{"extension":[{"url":"http://hl7.org/fhir/StructureDefinition/data-absent-reason","valueCode":"unknown"}]}}},{"fullUrl":"urn:uuid:19f0ac54-3b7a-449c-b7c8-05eb652e4db6","resource":{"resourceType":"CarePlan","id":"19f0ac54-3b7a-449c-b7c8-05eb652e4db6","text":{"status":"generated","div":"<div xmlns=\"http://www.w3.org/1999/xhtml\"><a name=\"CarePlan_19f0ac54-3b7a-449c-b7c8-05eb652e4db6\"> </a><table class=\"hl7__ips\"><tr><td>Hyperlipidemia clinical management plan</td><td><span class=\"nb\">2020-08-16</span></td><td>Hyperlipidemia</td></tr></table></div>"},"status":"active","intent":"plan","category":[{"coding":[{"system":"http://terminology.hl7.org/CodeSystem/care-plan-category","code":"assess-plan","display":"Assessment and Plan"}]}],"subject":{"reference":"urn:uuid:538f125e-f171-4ec3-b018-8a23e0f06828","display":"Ludwig Wallin"},"period":{"start":"2020-08-16"},"activity":[{"detail":{"kind":"appointment","code":{"coding":[{"system":"http://snomed.info/sct","code":"736285004","display":"Hyperlipidemia clinical management plan (record artifact)"}]},"reasonCode":[{"coding":[{"system":"http://snomed.info/sct","code":"55822004","display":"Hyperlipidemia"}]}],"status":"unknown","description":"Hyperlipidemia clinical management plan"}}]}},{"fullUrl":"urn:uuid:11f212af-86af-4753-84b5-f7dc1fec2c86","resource":{"resourceType":"CarePlan","id":"11f212af-86af-4753-84b5-f7dc1fec2c86","text":{"status":"generated","div":"<div xmlns=\"http://www.w3.org/1999/xhtml\"><a name=\"CarePlan_11f212af-86af-4753-84b5-f7dc1fec2c86\"> </a><table class=\"hl7__ips\"><tr><td>Diabetes self management plan</td><td><span class=\"nb\">1997-03-16</span></td><td>Prediabetes</td></tr></table></div>"},"status":"active","intent":"plan","category":[{"coding":[{"system":"http://terminology.hl7.org/CodeSystem/care-plan-category","code":"assess-plan","display":"Assessment and Plan"}]}],"subject":{"reference":"urn:uuid:538f125e-f171-4ec3-b018-8a23e0f06828","display":"Ludwig Wallin"},"period":{"start":"1997-03-16"},"activity":[{"detail":{"kind":"appointment","code":{"coding":[{"system":"http://snomed.info/sct","code":"698360004","display":"Diabetes self management plan (qualifier value)"}]},"reasonCode":[{"coding":[{"system":"http://snomed.info/sct","code":"15777000","display":"Prediabetes"}]}],"status":"unknown","description":"Diabetes self management plan"}}]}},{"fullUrl":"urn:uuid:c9209d40-f914-46c6-b5c2-119636567c82","resource":{"resourceType":"ImmunizationRecommendation","id":"c9209d40-f914-46c6-b5c2-119636567c82","text":{"status":"generated","div":"<div xmlns=\"http://www.w3.org/1999/xhtml\"><a name=\"ImmunizationRecommendation_c9209d40-f914-46c6-b5c2-119636567c82\"> </a><table class=\"hl7__ips\"><tr><td>Vaccine product containing only Influenza virus antigen (medicinal product)</td><td><span class=\"nb\">2025-10-01</span></td><td>Annual seasonal influenza vaccination</td></tr></table></div>"},"patient":{"reference":"urn:uuid:538f125e-f171-4ec3-b018-8a23e0f06828","display":"Ludwig Wallin"},"date":"2025-08-31","recommendation":[{"vaccineCode":[{"coding":[{"system":"http://snomed.info/sct","code":"1181000221105","display":"Vaccine product containing only Influenza virus antigen (medicinal product)"}]}],"targetDisease":{"coding":[{"system":"http://snomed.info/sct","code":"6142004","display":"Influenza (disorder)"}]},"forecastStatus":{"coding":[{"system":"http://terminology.hl7.org/CodeSystem/immunization-recommendation-status","code":"due","display":"Due"}]},"dateCriterion":[{"code":{"coding":[{"system":"http://loinc.org","code":"30980-7","display":"Date vaccine due"}]},"value":"2025-10-01"}],"series":"Annual seasonal influenza vaccination","supportingImmunization":[{"reference":"urn:uuid:00801b0c-dd23-4924-8a7e-ad43827123b3"}]}]}},{"fullUrl":"urn:uuid:1a32f39b-9b49-4273-bcca-2092eb4f49c3","resource":{"resourceType":"Observation","id":"1a32f39b-9b49-4273-bcca-2092eb4f49c3","meta":{"profile":["http://hl7.org/fhir/StructureDefinition/vitalsigns"]},"text":{"status":"generated","div":"<div xmlns=\"http://www.w3.org/1999/xhtml\"><a name=\"Observation_1a32f39b-9b49-4273-bcca-2092eb4f49c3\"> </a><table class=\"hl7__ips\"><tr><td>Body Height</td><td>171.1 cm</td></tr></table></div>"},"status":"final","category":[{"coding":[{"system":"http://terminology.hl7.org/CodeSystem/observation-category","code":"vital-signs","display":"Vital Signs"}]}],"code":{"coding":[{"system":"http://loinc.org","code":"8302-2","display":"Body Height"}]},"subject":{"reference":"urn:uuid:538f125e-f171-4ec3-b018-8a23e0f06828","display":"Ludwig Wallin"},"effectiveDateTime":"2024-08-18","valueQuantity":{"value":171.1,"unit":"cm","code":"cm"}}},{"fullUrl":"urn:uuid:18ba106b-7ef8-4669-9ba7-6a46ddf0efd4","resource":{"resourceType":"Observation","id":"18ba106b-7ef8-4669-9ba7-6a46ddf0efd4","meta":{"profile":["http://hl7.org/fhir/StructureDefinition/vitalsigns"]},"text":{"status":"generated","div":"<div xmlns=\"http://www.w3.org/1999/xhtml\"><a name=\"Observation_18ba106b-7ef8-4669-9ba7-6a46ddf0efd4\"> </a><table class=\"hl7__ips\"><tr><td>Pain severity - 0-10 verbal numeric rating [Score] - Reported</td><td>1 {score}</td></tr></table></div>"},"status":"final","category":[{"coding":[{"system":"http://terminology.hl7.org/CodeSystem/observation-category","code":"vital-signs","display":"Vital Signs"}]}],"code":{"coding":[{"system":"http://loinc.org","code":"72514-3","display":"Pain severity - 0-10 verbal numeric rating [Score] - Reported"}]},"subject":{"reference":"urn:uuid:538f125e-f171-4ec3-b018-8a23e0f06828","display":"Ludwig Wallin"},"effectiveDateTime":"2024-08-18","valueQuantity":{"value":1,"unit":"{score}","code":"{score}"}}},{"fullUrl":"urn:uuid:88b76d5b-f142-48e6-ba61-d61e0f50819a","resource":{"resourceType":"Observation","id":"88b76d5b-f142-48e6-ba61-d61e0f50819a","meta":{"profile":["http://hl7.org/fhir/StructureDefinition/vitalsigns"]},"text":{"status":"generated","div":"<div xmlns=\"http://www.w3.org/1999/xhtml\"><a name=\"Observation_88b76d5b-f142-48e6-ba61-d61e0f50819a\"> </a><table class=\"hl7__ips\"><tr><td>Body Weight</td><td>80.7 kg</td></tr></table></div>"},"status":"final","category":[{"coding":[{"system":"http://terminology.hl7.org/CodeSystem/observation-category","code":"vital-signs","display":"Vital Signs"}]}],"code":{"coding":[{"system":"http://loinc.org","code":"29463-7","display":"Body Weight"}]},"subject":{"reference":"urn:uuid:538f125e-f171-4ec3-b018-8a23e0f06828","display":"Ludwig Wallin"},"effectiveDateTime":"2024-08-18","valueQuantity":{"value":80.7,"unit":"kg","code":"kg"}}},{"fullUrl":"urn:uuid:81c5100f-71cd-47a8-9257-0889608ca452","resource":{"resourceType":"Observation","id":"81c5100f-71cd-47a8-9257-0889608ca452","meta":{"profile":["http://hl7.org/fhir/StructureDefinition/vitalsigns"]},"text":{"status":"generated","div":"<div xmlns=\"http://www.w3.org/1999/xhtml\"><a name=\"Observation_81c5100f-71cd-47a8-9257-0889608ca452\"> </a><table class=\"hl7__ips\"><tr><td>Body mass index (BMI) [Ratio]</td><td>27.6 kg/m2</td></tr></table></div>"},"status":"final","category":[{"coding":[{"system":"http://terminology.hl7.org/CodeSystem/observation-category","code":"vital-signs","display":"Vital Signs"}]}],"code":{"coding":[{"system":"http://loinc.org","code":"39156-5","display":"Body mass index (BMI) [Ratio]"}]},"subject":{"reference":"urn:uuid:538f125e-f171-4ec3-b018-8a23e0f06828","display":"Ludwig Wallin"},"effectiveDateTime":"2024-08-18","valueQuantity":{"value":27.6,"unit":"kg/m2","code":"kg/m2"}}},{"fullUrl":"urn:uuid:f4b40c2a-ae47-442a-a5d9-b7bb84f0a8a6","resource":{"resourceType":"Observation","id":"f4b40c2a-ae47-442a-a5d9-b7bb84f0a8a6","meta":{"profile":["http://hl7.org/fhir/StructureDefinition/vitalsigns"]},"text":{"status":"generated","div":"<div xmlns=\"http://www.w3.org/1999/xhtml\"><a name=\"Observation_f4b40c2a-ae47-442a-a5d9-b7bb84f0a8a6\"> </a><table class=\"hl7__ips\"><tr><td>Diastolic Blood Pressure</td><td>61 mm[Hg]</td></tr></table></div>"},"status":"final","category":[{"coding":[{"system":"http://terminology.hl7.org/CodeSystem/observation-category","code":"vital-signs","display":"Vital Signs"}]}],"code":{"coding":[{"system":"http://loinc.org","code":"8462-4","display":"Diastolic Blood Pressure"}]},"subject":{"reference":"urn:uuid:538f125e-f171-4ec3-b018-8a23e0f06828","display":"Ludwig Wallin"},"effectiveDateTime":"2024-08-18","valueQuantity":{"value":61,"unit":"mm[Hg]","code":"mm[Hg]"}}},{"fullUrl":"urn:uuid:a56b4fab-1cb0-4732-9145-a9045945ba76","resource":{"resourceType":"Observation","id":"a56b4fab-1cb0-4732-9145-a9045945ba76","meta":{"profile":["http://hl7.org/fhir/StructureDefinition/vitalsigns"]},"text":{"status":"generated","div":"<div xmlns=\"http://www.w3.org/1999/xhtml\"><a name=\"Observation_a56b4fab-1cb0-4732-9145-a9045945ba76\"> </a><table class=\"hl7__ips\"><tr><td>Systolic Blood Pressure</td><td>107 mm[Hg]</td></tr></table></div>"},"status":"final","category":[{"coding":[{"system":"http://terminology.hl7.org/CodeSystem/observation-category","code":"vital-signs","display":"Vital Signs"}]}],"code":{"coding":[{"system":"http://loinc.org","code":"8480-6","display":"Systolic Blood Pressure"}]},"subject":{"reference":"urn:uuid:538f125e-f171-4ec3-b018-8a23e0f06828","display":"Ludwig Wallin"},"effectiveDateTime":"2024-08-18","valueQuantity":{"value":107,"unit":"mm[Hg]","code":"mm[Hg]"}}},{"fullUrl":"urn:uuid:e1efd0e6-c5e2-4f58-92a4-f9a19fed40af","resource":{"resourceType":"Observation","id":"e1efd0e6-c5e2-4f58-92a4-f9a19fed40af","meta":{"profile":["http://hl7.org/fhir/StructureDefinition/vitalsigns"]},"text":{"status":"generated","div":"<div xmlns=\"http://www.w3.org/1999/xhtml\"><a name=\"Observation_e1efd0e6-c5e2-4f58-92a4-f9a19fed40af\"> </a><table class=\"hl7__ips\"><tr><td>Heart rate</td><td>74 /min</td></tr></table></div>"},"status":"final","category":[{"coding":[{"system":"http://terminology.hl7.org/CodeSystem/observation-category","code":"vital-signs","display":"Vital Signs"}]}],"code":{"coding":[{"system":"http://loinc.org","code":"8867-4","display":"Heart rate"}]},"subject":{"reference":"urn:uuid:538f125e-f171-4ec3-b018-8a23e0f06828","display":"Ludwig Wallin"},"effectiveDateTime":"2024-08-18","valueQuantity":{"value":74,"unit":"/min","code":"/min"}}},{"fullUrl":"urn:uuid:4d8489c3-2433-4e60-b8b2-24655f9f22db","resource":{"resourceType":"Observation","id":"4d8489c3-2433-4e60-b8b2-24655f9f22db","meta":{"profile":["http://hl7.org/fhir/StructureDefinition/vitalsigns"]},"text":{"status":"generated","div":"<div xmlns=\"http://www.w3.org/1999/xhtml\"><a name=\"Observation_4d8489c3-2433-4e60-b8b2-24655f9f22db\"> </a><table class=\"hl7__ips\"><tr><td>Respiratory rate</td><td>15 /min</td></tr></table></div>"},"status":"final","category":[{"coding":[{"system":"http://terminology.hl7.org/CodeSystem/observation-category","code":"vital-signs","display":"Vital Signs"}]}],"code":{"coding":[{"system":"http://loinc.org","code":"9279-1","display":"Respiratory rate"}]},"subject":{"reference":"urn:uuid:538f125e-f171-4ec3-b018-8a23e0f06828","display":"Ludwig Wallin"},"effectiveDateTime":"2024-08-18","valueQuantity":{"value":15,"unit":"/min","code":"/min"}}},{"fullUrl":"urn:uuid:ca99cb8e-49ef-4b8d-bf4e-1dcc2c434aa7","resource":{"resourceType":"Observation","id":"ca99cb8e-49ef-4b8d-bf4e-1dcc2c434aa7","meta":{"profile":["http://hl7.org/fhir/StructureDefinition/vitalsigns"]},"text":{"status":"generated","div":"<div xmlns=\"http://www.w3.org/1999/xhtml\"><a name=\"Observation_ca99cb8e-49ef-4b8d-bf4e-1dcc2c434aa7\"> </a><table class=\"hl7__ips\"><tr><td>Body Height</td><td>171.1 cm</td></tr></table></div>"},"status":"final","category":[{"coding":[{"system":"http://terminology.hl7.org/CodeSystem/observation-category","code":"vital-signs","display":"Vital Signs"}]}],"code":{"coding":[{"system":"http://loinc.org","code":"8302-2","display":"Body Height"}]},"subject":{"reference":"urn:uuid:538f125e-f171-4ec3-b018-8a23e0f06828","display":"Ludwig Wallin"},"effectiveDateTime":"2023-08-13","valueQuantity":{"value":171.1,"unit":"cm","code":"cm"}}},{"fullUrl":"urn:uuid:8f174476-b6e0-4224-9d62-2c980d2bc820","resource":{"resourceType":"Observation","id":"8f174476-b6e0-4224-9d62-2c980d2bc820","meta":{"profile":["http://hl7.org/fhir/StructureDefinition/vitalsigns"]},"text":{"status":"generated","div":"<div xmlns=\"http://www.w3.org/1999/xhtml\"><a name=\"Observation_8f174476-b6e0-4224-9d62-2c980d2bc820\"> </a><table class=\"hl7__ips\"><tr><td>Pain severity - 0-10 verbal numeric rating [Score] - Reported</td><td>1 {score}</td></tr></table></div>"},"status":"final","category":[{"coding":[{"system":"http://terminology.hl7.org/CodeSystem/observation-category","code":"vital-signs","display":"Vital Signs"}]}],"code":{"coding":[{"system":"http://loinc.org","code":"72514-3","display":"Pain severity - 0-10 verbal numeric rating [Score] - Reported"}]},"subject":{"reference":"urn:uuid:538f125e-f171-4ec3-b018-8a23e0f06828","display":"Ludwig Wallin"},"effectiveDateTime":"2023-08-13","valueQuantity":{"value":1,"unit":"{score}","code":"{score}"}}},{"fullUrl":"urn:uuid:939be216-8292-4e98-a579-3af84069116b","resource":{"resourceType":"Observation","id":"939be216-8292-4e98-a579-3af84069116b","meta":{"profile":["http://hl7.org/fhir/StructureDefinition/vitalsigns"]},"text":{"status":"generated","div":"<div xmlns=\"http://www.w3.org/1999/xhtml\"><a name=\"Observation_939be216-8292-4e98-a579-3af84069116b\"> </a><table class=\"hl7__ips\"><tr><td>Body Weight</td><td>80.7 kg</td></tr></table></div>"},"status":"final","category":[{"coding":[{"system":"http://terminology.hl7.org/CodeSystem/observation-category","code":"vital-signs","display":"Vital Signs"}]}],"code":{"coding":[{"system":"http://loinc.org","code":"29463-7","display":"Body Weight"}]},"subject":{"reference":"urn:uuid:538f125e-f171-4ec3-b018-8a23e0f06828","display":"Ludwig Wallin"},"effectiveDateTime":"2023-08-13","valueQuantity":{"value":80.7,"unit":"kg","code":"kg"}}},{"fullUrl":"urn:uuid:fb89373b-bd0b-4b32-8ae6-a39aad6f71fa","resource":{"resourceType":"Observation","id":"fb89373b-bd0b-4b32-8ae6-a39aad6f71fa","meta":{"profile":["http://hl7.org/fhir/StructureDefinition/vitalsigns"]},"text":{"status":"generated","div":"<div xmlns=\"http://www.w3.org/1999/xhtml\"><a name=\"Observation_fb89373b-bd0b-4b32-8ae6-a39aad6f71fa\"> </a><table class=\"hl7__ips\"><tr><td>Body mass index (BMI) [Ratio]</td><td>27.6 kg/m2</td></tr></table></div>"},"status":"final","category":[{"coding":[{"system":"http://terminology.hl7.org/CodeSystem/observation-category","code":"vital-signs","display":"Vital Signs"}]}],"code":{"coding":[{"system":"http://loinc.org","code":"39156-5","display":"Body mass index (BMI) [Ratio]"}]},"subject":{"reference":"urn:uuid:538f125e-f171-4ec3-b018-8a23e0f06828","display":"Ludwig Wallin"},"effectiveDateTime":"2023-08-13","valueQuantity":{"value":27.6,"unit":"kg/m2","code":"kg/m2"}}},{"fullUrl":"urn:uuid:44ced184-c2eb-43eb-8fb7-506a3ba785b0","resource":{"resourceType":"Observation","id":"44ced184-c2eb-43eb-8fb7-506a3ba785b0","meta":{"profile":["http://hl7.org/fhir/StructureDefinition/vitalsigns"]},"text":{"status":"generated","div":"<div xmlns=\"http://www.w3.org/1999/xhtml\"><a name=\"Observation_44ced184-c2eb-43eb-8fb7-506a3ba785b0\"> </a><table class=\"hl7__ips\"><tr><td>Diastolic Blood Pressure</td><td>61 mm[Hg]</td></tr></table></div>"},"status":"final","category":[{"coding":[{"system":"http://terminology.hl7.org/CodeSystem/observation-category","code":"vital-signs","display":"Vital Signs"}]}],"code":{"coding":[{"system":"http://loinc.org","code":"8462-4","display":"Diastolic Blood Pressure"}]},"subject":{"reference":"urn:uuid:538f125e-f171-4ec3-b018-8a23e0f06828","display":"Ludwig Wallin"},"effectiveDateTime":"2023-08-13","valueQuantity":{"value":61,"unit":"mm[Hg]","code":"mm[Hg]"}}},{"fullUrl":"urn:uuid:1a1e24fe-c93f-4d73-b3cc-d2e0e2f33bd9","resource":{"resourceType":"Observation","id":"1a1e24fe-c93f-4d73-b3cc-d2e0e2f33bd9","meta":{"profile":["http://hl7.org/fhir/StructureDefinition/vitalsigns"]},"text":{"status":"generated","div":"<div xmlns=\"http://www.w3.org/1999/xhtml\"><a name=\"Observation_1a1e24fe-c93f-4d73-b3cc-d2e0e2f33bd9\"> </a><table class=\"hl7__ips\"><tr><td>Systolic Blood Pressure</td><td>104 mm[Hg]</td></tr></table></div>"},"status":"final","category":[{"coding":[{"system":"http://terminology.hl7.org/CodeSystem/observation-category","code":"vital-signs","display":"Vital Signs"}]}],"code":{"coding":[{"system":"http://loinc.org","code":"8480-6","display":"Systolic Blood Pressure"}]},"subject":{"reference":"urn:uuid:538f125e-f171-4ec3-b018-8a23e0f06828","display":"Ludwig Wallin"},"effectiveDateTime":"2023-08-13","valueQuantity":{"value":104,"unit":"mm[Hg]","code":"mm[Hg]"}}},{"fullUrl":"urn:uuid:7b295205-f028-433d-9409-9048a0d6e550","resource":{"resourceType":"Observation","id":"7b295205-f028-433d-9409-9048a0d6e550","meta":{"profile":["http://hl7.org/fhir/StructureDefinition/vitalsigns"]},"text":{"status":"generated","div":"<div xmlns=\"http://www.w3.org/1999/xhtml\"><a name=\"Observation_7b295205-f028-433d-9409-9048a0d6e550\"> </a><table class=\"hl7__ips\"><tr><td>Heart rate</td><td>94 /min</td></tr></table></div>"},"status":"final","category":[{"coding":[{"system":"http://terminology.hl7.org/CodeSystem/observation-category","code":"vital-signs","display":"Vital Signs"}]}],"code":{"coding":[{"system":"http://loinc.org","code":"8867-4","display":"Heart rate"}]},"subject":{"reference":"urn:uuid:538f125e-f171-4ec3-b018-8a23e0f06828","display":"Ludwig Wallin"},"effectiveDateTime":"2023-08-13","valueQuantity":{"value":94,"unit":"/min","code":"/min"}}},{"fullUrl":"urn:uuid:89c1b4be-7149-483b-8e1d-4f1482ac24b0","resource":{"resourceType":"Observation","id":"89c1b4be-7149-483b-8e1d-4f1482ac24b0","meta":{"profile":["http://hl7.org/fhir/StructureDefinition/vitalsigns"]},"text":{"status":"generated","div":"<div xmlns=\"http://www.w3.org/1999/xhtml\"><a name=\"Observation_89c1b4be-7149-483b-8e1d-4f1482ac24b0\"> </a><table class=\"hl7__ips\"><tr><td>Respiratory rate</td><td>14 /min</td></tr></table></div>"},"status":"final","category":[{"coding":[{"system":"http://terminology.hl7.org/CodeSystem/observation-category","code":"vital-signs","display":"Vital Signs"}]}],"code":{"coding":[{"system":"http://loinc.org","code":"9279-1","display":"Respiratory rate"}]},"subject":{"reference":"urn:uuid:538f125e-f171-4ec3-b018-8a23e0f06828","display":"Ludwig Wallin"},"effectiveDateTime":"2023-08-13","valueQuantity":{"value":14,"unit":"/min","code":"/min"}}},{"fullUrl":"urn:uuid:3769b2c8-dc1c-4d81-aa13-f59ee5bdfa30","resource":{"resourceType":"Observation","id":"3769b2c8-dc1c-4d81-aa13-f59ee5bdfa30","meta":{"profile":["http://hl7.eu/fhir/laboratory/StructureDefinition/Observation-resultslab-eu-lab"]},"text":{"status":"generated","div":"<div xmlns=\"http://www.w3.org/1999/xhtml\"><a name=\"Observation_3769b2c8-dc1c-4d81-aa13-f59ee5bdfa30\"> </a><p class=\"res-header-id\"><b>Generated Narrative: Observation 3769b2c8-dc1c-4d81-aa13-f59ee5bdfa30</b></p><a name=\"3769b2c8-dc1c-4d81-aa13-f59ee5bdfa30\"> </a><a name=\"hc3769b2c8-dc1c-4d81-aa13-f59ee5bdfa30\"> </a><div style=\"display: inline-block; background-color: #d9e0e7; padding: 6px; margin: 4px; border: 1px solid #8da1b4; border-radius: 5px; line-height: 60%\"><p style=\"margin-bottom: 0px\"/><p style=\"margin-bottom: 0px\">Profile: <a href=\"http://hl7.eu/fhir/laboratory/0.1.1/StructureDefinition-Observation-resultslab-eu-lab.html\">Observation Results: laboratory</a></p></div><p><b>status</b>: Final</p><p><b>category</b>: <span title=\"Codes:{http://terminology.hl7.org/CodeSystem/observation-category laboratory}\">Laboratory</span></p><p><b>code</b>: <span title=\"Codes:{http://loinc.org 2339-0}\">Glucose [Mass/volume] in Blood</span></p><p><b>subject</b>: <a href=\"Bundle-Instance-Bundle-fc1c3ac6-c97e-4fa5-96f7-a3a443b45be3.html#urn-uuid-538f125e-f171-4ec3-b018-8a23e0f06828\">Ludwig Wallin Male, DoB: 1950-03-02 ( Jurisdictional health number)</a></p><p><b>effective</b>: 2023-08-16</p><p><b>performer</b>: The Central European Lab</p><p><b>value</b>: 95.7 mg/dL<span style=\"background: LightGoldenRodYellow\"> (Details: UCUM  code2339-0 = '2339-0')</span></p><h3>ReferenceRanges</h3><table class=\"grid\"><tr><td style=\"display: none\">-</td><td><b>Low</b></td><td><b>High</b></td></tr><tr><td style=\"display: none\">*</td><td>70 mg/dL<span style=\"background: LightGoldenRodYellow\"> (Details: UCUM  codemg/dL = 'mg/dL')</span></td><td> </td></tr><tr><td style=\"display: none\">*</td><td> </td><td>140 mg/dL<span style=\"background: LightGoldenRodYellow\"> (Details: UCUM  codemg/dL = 'mg/dL')</span></td></tr></table></div>"},"status":"final","category":[{"coding":[{"system":"http://terminology.hl7.org/CodeSystem/observation-category","code":"laboratory"}]}],"code":{"coding":[{"system":"http://loinc.org","code":"2339-0","display":"Glucose [Mass/volume] in Blood"}],"text":"Glucose [Mass/volume] in Blood"},"subject":{"reference":"urn:uuid:538f125e-f171-4ec3-b018-8a23e0f06828"},"effectiveDateTime":"2023-08-16","performer":[{"display":"The Central European Lab"}],"valueQuantity":{"value":95.7,"unit":"mg/dL","system":"http://unitsofmeasure.org","code":"2339-0"},"referenceRange":[{"low":{"value":70,"system":"http://unitsofmeasure.org","code":"mg/dL"}},{"high":{"value":140,"system":"http://unitsofmeasure.org","code":"mg/dL"}}]}},{"fullUrl":"urn:uuid:634f31ad-e825-4787-92e0-7488c6be942b","resource":{"resourceType":"Observation","id":"634f31ad-e825-4787-92e0-7488c6be942b","meta":{"profile":["http://hl7.eu/fhir/laboratory/StructureDefinition/Observation-resultslab-eu-lab"]},"text":{"status":"generated","div":"<div xmlns=\"http://www.w3.org/1999/xhtml\"><a name=\"Observation_634f31ad-e825-4787-92e0-7488c6be942b\"> </a><p class=\"res-header-id\"><b>Generated Narrative: Observation 634f31ad-e825-4787-92e0-7488c6be942b</b></p><a name=\"634f31ad-e825-4787-92e0-7488c6be942b\"> </a><a name=\"hc634f31ad-e825-4787-92e0-7488c6be942b\"> </a><div style=\"display: inline-block; background-color: #d9e0e7; padding: 6px; margin: 4px; border: 1px solid #8da1b4; border-radius: 5px; line-height: 60%\"><p style=\"margin-bottom: 0px\"/><p style=\"margin-bottom: 0px\">Profile: <a href=\"http://hl7.eu/fhir/laboratory/0.1.1/StructureDefinition-Observation-resultslab-eu-lab.html\">Observation Results: laboratory</a></p></div><p><b>status</b>: Final</p><p><b>category</b>: <span title=\"Codes:{http://terminology.hl7.org/CodeSystem/observation-category laboratory}\">Laboratory</span></p><p><b>code</b>: <span title=\"Codes:{http://loinc.org 6299-2}\">Urea nitrogen [Mass/volume] in Blood</span></p><p><b>subject</b>: <a href=\"Bundle-Instance-Bundle-fc1c3ac6-c97e-4fa5-96f7-a3a443b45be3.html#urn-uuid-538f125e-f171-4ec3-b018-8a23e0f06828\">Ludwig Wallin Male, DoB: 1950-03-02 ( Jurisdictional health number)</a></p><p><b>effective</b>: 2023-08-16</p><p><b>performer</b>: The Central European Lab</p><p><b>value</b>: 9.3 mg/dL<span style=\"background: LightGoldenRodYellow\"> (Details: UCUM  code6299-2 = '6299-2')</span></p><h3>ReferenceRanges</h3><table class=\"grid\"><tr><td style=\"display: none\">-</td><td><b>Low</b></td><td><b>High</b></td></tr><tr><td style=\"display: none\">*</td><td>7 mg/dL<span style=\"background: LightGoldenRodYellow\"> (Details: UCUM  codemg/dL = 'mg/dL')</span></td><td> </td></tr><tr><td style=\"display: none\">*</td><td> </td><td>20 mg/dL<span style=\"background: LightGoldenRodYellow\"> (Details: UCUM  codemg/dL = 'mg/dL')</span></td></tr></table></div>"},"status":"final","category":[{"coding":[{"system":"http://terminology.hl7.org/CodeSystem/observation-category","code":"laboratory"}]}],"code":{"coding":[{"system":"http://loinc.org","code":"6299-2","display":"Urea nitrogen [Mass/volume] in Blood"}],"text":"Urea nitrogen [Mass/volume] in Blood"},"subject":{"reference":"urn:uuid:538f125e-f171-4ec3-b018-8a23e0f06828"},"effectiveDateTime":"2023-08-16","performer":[{"display":"The Central European Lab"}],"valueQuantity":{"value":9.3,"unit":"mg/dL","system":"http://unitsofmeasure.org","code":"6299-2"},"referenceRange":[{"low":{"value":7,"system":"http://unitsofmeasure.org","code":"mg/dL"}},{"high":{"value":20,"system":"http://unitsofmeasure.org","code":"mg/dL"}}]}},{"fullUrl":"urn:uuid:43c75d44-ccfd-4a03-9f76-09ce1dbfda89","resource":{"resourceType":"Observation","id":"43c75d44-ccfd-4a03-9f76-09ce1dbfda89","meta":{"profile":["http://hl7.eu/fhir/laboratory/StructureDefinition/Observation-resultslab-eu-lab"]},"text":{"status":"generated","div":"<div xmlns=\"http://www.w3.org/1999/xhtml\"><a name=\"Observation_43c75d44-ccfd-4a03-9f76-09ce1dbfda89\"> </a><p class=\"res-header-id\"><b>Generated Narrative: Observation 43c75d44-ccfd-4a03-9f76-09ce1dbfda89</b></p><a name=\"43c75d44-ccfd-4a03-9f76-09ce1dbfda89\"> </a><a name=\"hc43c75d44-ccfd-4a03-9f76-09ce1dbfda89\"> </a><div style=\"display: inline-block; background-color: #d9e0e7; padding: 6px; margin: 4px; border: 1px solid #8da1b4; border-radius: 5px; line-height: 60%\"><p style=\"margin-bottom: 0px\"/><p style=\"margin-bottom: 0px\">Profile: <a href=\"http://hl7.eu/fhir/laboratory/0.1.1/StructureDefinition-Observation-resultslab-eu-lab.html\">Observation Results: laboratory</a></p></div><p><b>status</b>: Final</p><p><b>category</b>: <span title=\"Codes:{http://terminology.hl7.org/CodeSystem/observation-category laboratory}\">Laboratory</span></p><p><b>code</b>: <span title=\"Codes:{http://loinc.org 38483-4}\">Creatinine [Mass/volume] in Blood</span></p><p><b>subject</b>: <a href=\"Bundle-Instance-Bundle-fc1c3ac6-c97e-4fa5-96f7-a3a443b45be3.html#urn-uuid-538f125e-f171-4ec3-b018-8a23e0f06828\">Ludwig Wallin Male, DoB: 1950-03-02 ( Jurisdictional health number)</a></p><p><b>effective</b>: 2023-08-16</p><p><b>performer</b>: The Central European Lab</p><p><b>value</b>: 3.4 mg/dL<span style=\"background: LightGoldenRodYellow\"> (Details: UCUM  code38483-4 = '38483-4')</span></p><p><b>interpretation</b>: <span title=\"Codes:{http://terminology.hl7.org/CodeSystem/v3-ObservationInterpretation H}\">High</span></p><h3>ReferenceRanges</h3><table class=\"grid\"><tr><td style=\"display: none\">-</td><td><b>Low</b></td><td><b>High</b></td></tr><tr><td style=\"display: none\">*</td><td>0.9 mg/dL<span style=\"background: LightGoldenRodYellow\"> (Details: UCUM  codemg/dL = 'mg/dL')</span></td><td> </td></tr><tr><td style=\"display: none\">*</td><td> </td><td>1.3 mg/dL<span style=\"background: LightGoldenRodYellow\"> (Details: UCUM  codemg/dL = 'mg/dL')</span></td></tr></table></div>"},"status":"final","category":[{"coding":[{"system":"http://terminology.hl7.org/CodeSystem/observation-category","code":"laboratory"}]}],"code":{"coding":[{"system":"http://loinc.org","code":"38483-4","display":"Creatinine [Mass/volume] in Blood"}],"text":"Creatinine [Mass/volume] in Blood"},"subject":{"reference":"urn:uuid:538f125e-f171-4ec3-b018-8a23e0f06828"},"effectiveDateTime":"2023-08-16","performer":[{"display":"The Central European Lab"}],"valueQuantity":{"value":3.4,"unit":"mg/dL","system":"http://unitsofmeasure.org","code":"38483-4"},"interpretation":[{"coding":[{"system":"http://terminology.hl7.org/CodeSystem/v3-ObservationInterpretation","code":"H","display":"High"}]}],"referenceRange":[{"low":{"value":0.9,"system":"http://unitsofmeasure.org","code":"mg/dL"}},{"high":{"value":1.3,"system":"http://unitsofmeasure.org","code":"mg/dL"}}]}},{"fullUrl":"urn:uuid:9f967d54-b75c-4d6d-8049-ebf9d8b0ae25","resource":{"resourceType":"Observation","id":"9f967d54-b75c-4d6d-8049-ebf9d8b0ae25","meta":{"profile":["http://hl7.eu/fhir/laboratory/StructureDefinition/Observation-resultslab-eu-lab"]},"text":{"status":"generated","div":"<div xmlns=\"http://www.w3.org/1999/xhtml\"><a name=\"Observation_9f967d54-b75c-4d6d-8049-ebf9d8b0ae25\"> </a><p class=\"res-header-id\"><b>Generated Narrative: Observation 9f967d54-b75c-4d6d-8049-ebf9d8b0ae25</b></p><a name=\"9f967d54-b75c-4d6d-8049-ebf9d8b0ae25\"> </a><a name=\"hc9f967d54-b75c-4d6d-8049-ebf9d8b0ae25\"> </a><div style=\"display: inline-block; background-color: #d9e0e7; padding: 6px; margin: 4px; border: 1px solid #8da1b4; border-radius: 5px; line-height: 60%\"><p style=\"margin-bottom: 0px\"/><p style=\"margin-bottom: 0px\">Profile: <a href=\"http://hl7.eu/fhir/laboratory/0.1.1/StructureDefinition-Observation-resultslab-eu-lab.html\">Observation Results: laboratory</a></p></div><p><b>status</b>: Final</p><p><b>category</b>: <span title=\"Codes:{http://terminology.hl7.org/CodeSystem/observation-category laboratory}\">Laboratory</span></p><p><b>code</b>: <span title=\"Codes:{http://loinc.org 49765-1}\">Calcium [Mass/volume] in Blood</span></p><p><b>subject</b>: <a href=\"Bundle-Instance-Bundle-fc1c3ac6-c97e-4fa5-96f7-a3a443b45be3.html#urn-uuid-538f125e-f171-4ec3-b018-8a23e0f06828\">Ludwig Wallin Male, DoB: 1950-03-02 ( Jurisdictional health number)</a></p><p><b>effective</b>: 2023-08-16</p><p><b>performer</b>: The Central European Lab</p><p><b>value</b>: 9.1 mg/dL<span style=\"background: LightGoldenRodYellow\"> (Details: UCUM  code49765-1 = '49765-1')</span></p><h3>ReferenceRanges</h3><table class=\"grid\"><tr><td style=\"display: none\">-</td><td><b>Low</b></td><td><b>High</b></td></tr><tr><td style=\"display: none\">*</td><td>8.5 mg/dL<span style=\"background: LightGoldenRodYellow\"> (Details: UCUM  codemg/dL = 'mg/dL')</span></td><td> </td></tr><tr><td style=\"display: none\">*</td><td> </td><td>10.5 mg/dL<span style=\"background: LightGoldenRodYellow\"> (Details: UCUM  codemg/dL = 'mg/dL')</span></td></tr></table></div>"},"status":"final","category":[{"coding":[{"system":"http://terminology.hl7.org/CodeSystem/observation-category","code":"laboratory"}]}],"code":{"coding":[{"system":"http://loinc.org","code":"49765-1","display":"Calcium [Mass/volume] in Blood"}],"text":"Calcium [Mass/volume] in Blood"},"subject":{"reference":"urn:uuid:538f125e-f171-4ec3-b018-8a23e0f06828"},"effectiveDateTime":"2023-08-16","performer":[{"display":"The Central European Lab"}],"valueQuantity":{"value":9.1,"unit":"mg/dL","system":"http://unitsofmeasure.org","code":"49765-1"},"referenceRange":[{"low":{"value":8.5,"system":"http://unitsofmeasure.org","code":"mg/dL"}},{"high":{"value":10.5,"system":"http://unitsofmeasure.org","code":"mg/dL"}}]}},{"fullUrl":"urn:uuid:bf1d0965-be59-4e25-82f9-674ed172977e","resource":{"resourceType":"Observation","id":"bf1d0965-be59-4e25-82f9-674ed172977e","meta":{"profile":["http://hl7.eu/fhir/laboratory/StructureDefinition/Observation-resultslab-eu-lab"]},"text":{"status":"generated","div":"<div xmlns=\"http://www.w3.org/1999/xhtml\"><a name=\"Observation_bf1d0965-be59-4e25-82f9-674ed172977e\"> </a><p class=\"res-header-id\"><b>Generated Narrative: Observation bf1d0965-be59-4e25-82f9-674ed172977e</b></p><a name=\"bf1d0965-be59-4e25-82f9-674ed172977e\"> </a><a name=\"hcbf1d0965-be59-4e25-82f9-674ed172977e\"> </a><div style=\"display: inline-block; background-color: #d9e0e7; padding: 6px; margin: 4px; border: 1px solid #8da1b4; border-radius: 5px; line-height: 60%\"><p style=\"margin-bottom: 0px\"/><p style=\"margin-bottom: 0px\">Profile: <a href=\"http://hl7.eu/fhir/laboratory/0.1.1/StructureDefinition-Observation-resultslab-eu-lab.html\">Observation Results: laboratory</a></p></div><p><b>status</b>: Final</p><p><b>category</b>: <span title=\"Codes:{http://terminology.hl7.org/CodeSystem/observation-category laboratory}\">Laboratory</span></p><p><b>code</b>: <span title=\"Codes:{http://loinc.org 2947-0}\">Sodium [Moles/volume] in Blood</span></p><p><b>subject</b>: <a href=\"Bundle-Instance-Bundle-fc1c3ac6-c97e-4fa5-96f7-a3a443b45be3.html#urn-uuid-538f125e-f171-4ec3-b018-8a23e0f06828\">Ludwig Wallin Male, DoB: 1950-03-02 ( Jurisdictional health number)</a></p><p><b>effective</b>: 2023-08-16</p><p><b>performer</b>: The Central European Lab</p><p><b>value</b>: 143.5 mmol/L<span style=\"background: LightGoldenRodYellow\"> (Details: UCUM  code2947-0 = '2947-0')</span></p><h3>ReferenceRanges</h3><table class=\"grid\"><tr><td style=\"display: none\">-</td><td><b>Low</b></td><td><b>High</b></td></tr><tr><td style=\"display: none\">*</td><td>135 mmol/L<span style=\"background: LightGoldenRodYellow\"> (Details: UCUM  codemmol/L = 'mmol/L')</span></td><td> </td></tr><tr><td style=\"display: none\">*</td><td> </td><td>145 mmol/L<span style=\"background: LightGoldenRodYellow\"> (Details: UCUM  codemmol/L = 'mmol/L')</span></td></tr></table></div>"},"status":"final","category":[{"coding":[{"system":"http://terminology.hl7.org/CodeSystem/observation-category","code":"laboratory"}]}],"code":{"coding":[{"system":"http://loinc.org","code":"2947-0","display":"Sodium [Moles/volume] in Blood"}],"text":"Sodium [Moles/volume] in Blood"},"subject":{"reference":"urn:uuid:538f125e-f171-4ec3-b018-8a23e0f06828"},"effectiveDateTime":"2023-08-16","performer":[{"display":"The Central European Lab"}],"valueQuantity":{"value":143.5,"unit":"mmol/L","system":"http://unitsofmeasure.org","code":"2947-0"},"referenceRange":[{"low":{"value":135,"system":"http://unitsofmeasure.org","code":"mmol/L"}},{"high":{"value":145,"system":"http://unitsofmeasure.org","code":"mmol/L"}}]}},{"fullUrl":"urn:uuid:a3be6062-a3e4-43cc-98a4-9d5a97d2a6f4","resource":{"resourceType":"Observation","id":"a3be6062-a3e4-43cc-98a4-9d5a97d2a6f4","meta":{"profile":["http://hl7.eu/fhir/laboratory/StructureDefinition/Observation-resultslab-eu-lab"]},"text":{"status":"generated","div":"<div xmlns=\"http://www.w3.org/1999/xhtml\"><a name=\"Observation_a3be6062-a3e4-43cc-98a4-9d5a97d2a6f4\"> </a><p class=\"res-header-id\"><b>Generated Narrative: Observation a3be6062-a3e4-43cc-98a4-9d5a97d2a6f4</b></p><a name=\"a3be6062-a3e4-43cc-98a4-9d5a97d2a6f4\"> </a><a name=\"hca3be6062-a3e4-43cc-98a4-9d5a97d2a6f4\"> </a><div style=\"display: inline-block; background-color: #d9e0e7; padding: 6px; margin: 4px; border: 1px solid #8da1b4; border-radius: 5px; line-height: 60%\"><p style=\"margin-bottom: 0px\"/><p style=\"margin-bottom: 0px\">Profile: <a href=\"http://hl7.eu/fhir/laboratory/0.1.1/StructureDefinition-Observation-resultslab-eu-lab.html\">Observation Results: laboratory</a></p></div><p><b>status</b>: Final</p><p><b>category</b>: <span title=\"Codes:{http://terminology.hl7.org/CodeSystem/observation-category laboratory}\">Laboratory</span></p><p><b>code</b>: <span title=\"Codes:{http://loinc.org 6298-4}\">Potassium [Moles/volume] in Blood</span></p><p><b>subject</b>: <a href=\"Bundle-Instance-Bundle-fc1c3ac6-c97e-4fa5-96f7-a3a443b45be3.html#urn-uuid-538f125e-f171-4ec3-b018-8a23e0f06828\">Ludwig Wallin Male, DoB: 1950-03-02 ( Jurisdictional health number)</a></p><p><b>effective</b>: 2023-08-16</p><p><b>performer</b>: The Central European Lab</p><p><b>value</b>: 4.1 mmol/L<span style=\"background: LightGoldenRodYellow\"> (Details: UCUM  code6298-4 = '6298-4')</span></p><h3>ReferenceRanges</h3><table class=\"grid\"><tr><td style=\"display: none\">-</td><td><b>Low</b></td><td><b>High</b></td></tr><tr><td style=\"display: none\">*</td><td>3.5 mmol/L<span style=\"background: LightGoldenRodYellow\"> (Details: UCUM  codemmol/L = 'mmol/L')</span></td><td> </td></tr><tr><td style=\"display: none\">*</td><td> </td><td>5.3 mmol/L<span style=\"background: LightGoldenRodYellow\"> (Details: UCUM  codemmol/L = 'mmol/L')</span></td></tr></table></div>"},"status":"final","category":[{"coding":[{"system":"http://terminology.hl7.org/CodeSystem/observation-category","code":"laboratory"}]}],"code":{"coding":[{"system":"http://loinc.org","code":"6298-4","display":"Potassium [Moles/volume] in Blood"}],"text":"Potassium [Moles/volume] in Blood"},"subject":{"reference":"urn:uuid:538f125e-f171-4ec3-b018-8a23e0f06828"},"effectiveDateTime":"2023-08-16","performer":[{"display":"The Central European Lab"}],"valueQuantity":{"value":4.1,"unit":"mmol/L","system":"http://unitsofmeasure.org","code":"6298-4"},"referenceRange":[{"low":{"value":3.5,"system":"http://unitsofmeasure.org","code":"mmol/L"}},{"high":{"value":5.3,"system":"http://unitsofmeasure.org","code":"mmol/L"}}]}},{"fullUrl":"urn:uuid:96e4eb8b-71c8-4a3c-9e67-c099d52830fc","resource":{"resourceType":"Observation","id":"96e4eb8b-71c8-4a3c-9e67-c099d52830fc","meta":{"profile":["http://hl7.eu/fhir/laboratory/StructureDefinition/Observation-resultslab-eu-lab"]},"text":{"status":"generated","div":"<div xmlns=\"http://www.w3.org/1999/xhtml\"><a name=\"Observation_96e4eb8b-71c8-4a3c-9e67-c099d52830fc\"> </a><p class=\"res-header-id\"><b>Generated Narrative: Observation 96e4eb8b-71c8-4a3c-9e67-c099d52830fc</b></p><a name=\"96e4eb8b-71c8-4a3c-9e67-c099d52830fc\"> </a><a name=\"hc96e4eb8b-71c8-4a3c-9e67-c099d52830fc\"> </a><div style=\"display: inline-block; background-color: #d9e0e7; padding: 6px; margin: 4px; border: 1px solid #8da1b4; border-radius: 5px; line-height: 60%\"><p style=\"margin-bottom: 0px\"/><p style=\"margin-bottom: 0px\">Profile: <a href=\"http://hl7.eu/fhir/laboratory/0.1.1/StructureDefinition-Observation-resultslab-eu-lab.html\">Observation Results: laboratory</a></p></div><p><b>status</b>: Final</p><p><b>category</b>: <span title=\"Codes:{http://terminology.hl7.org/CodeSystem/observation-category laboratory}\">Laboratory</span></p><p><b>code</b>: <span title=\"Codes:{http://loinc.org 2069-3}\">Chloride [Moles/volume] in Blood</span></p><p><b>subject</b>: <a href=\"Bundle-Instance-Bundle-fc1c3ac6-c97e-4fa5-96f7-a3a443b45be3.html#urn-uuid-538f125e-f171-4ec3-b018-8a23e0f06828\">Ludwig Wallin Male, DoB: 1950-03-02 ( Jurisdictional health number)</a></p><p><b>effective</b>: 2023-08-16</p><p><b>performer</b>: The Central European Lab</p><p><b>value</b>: 102.5 mmol/L<span style=\"background: LightGoldenRodYellow\"> (Details: UCUM  code2069-3 = '2069-3')</span></p><h3>ReferenceRanges</h3><table class=\"grid\"><tr><td style=\"display: none\">-</td><td><b>Low</b></td><td><b>High</b></td></tr><tr><td style=\"display: none\">*</td><td>98 mmol/L<span style=\"background: LightGoldenRodYellow\"> (Details: UCUM  codemmol/L = 'mmol/L')</span></td><td> </td></tr><tr><td style=\"display: none\">*</td><td> </td><td>108 mmol/L<span style=\"background: LightGoldenRodYellow\"> (Details: UCUM  codemmol/L = 'mmol/L')</span></td></tr></table></div>"},"status":"final","category":[{"coding":[{"system":"http://terminology.hl7.org/CodeSystem/observation-category","code":"laboratory"}]}],"code":{"coding":[{"system":"http://loinc.org","code":"2069-3","display":"Chloride [Moles/volume] in Blood"}],"text":"Chloride [Moles/volume] in Blood"},"subject":{"reference":"urn:uuid:538f125e-f171-4ec3-b018-8a23e0f06828"},"effectiveDateTime":"2023-08-16","performer":[{"display":"The Central European Lab"}],"valueQuantity":{"value":102.5,"unit":"mmol/L","system":"http://unitsofmeasure.org","code":"2069-3"},"referenceRange":[{"low":{"value":98,"system":"http://unitsofmeasure.org","code":"mmol/L"}},{"high":{"value":108,"system":"http://unitsofmeasure.org","code":"mmol/L"}}]}},{"fullUrl":"urn:uuid:d8bf06a3-994b-4af8-8fcc-acf64e4c2368","resource":{"resourceType":"Observation","id":"d8bf06a3-994b-4af8-8fcc-acf64e4c2368","meta":{"profile":["http://hl7.eu/fhir/laboratory/StructureDefinition/Observation-resultslab-eu-lab"]},"text":{"status":"generated","div":"<div xmlns=\"http://www.w3.org/1999/xhtml\"><a name=\"Observation_d8bf06a3-994b-4af8-8fcc-acf64e4c2368\"> </a><p class=\"res-header-id\"><b>Generated Narrative: Observation d8bf06a3-994b-4af8-8fcc-acf64e4c2368</b></p><a name=\"d8bf06a3-994b-4af8-8fcc-acf64e4c2368\"> </a><a name=\"hcd8bf06a3-994b-4af8-8fcc-acf64e4c2368\"> </a><div style=\"display: inline-block; background-color: #d9e0e7; padding: 6px; margin: 4px; border: 1px solid #8da1b4; border-radius: 5px; line-height: 60%\"><p style=\"margin-bottom: 0px\"/><p style=\"margin-bottom: 0px\">Profile: <a href=\"http://hl7.eu/fhir/laboratory/0.1.1/StructureDefinition-Observation-resultslab-eu-lab.html\">Observation Results: laboratory</a></p></div><p><b>status</b>: Final</p><p><b>category</b>: <span title=\"Codes:{http://terminology.hl7.org/CodeSystem/observation-category laboratory}\">Laboratory</span></p><p><b>code</b>: <span title=\"Codes:{http://loinc.org 20565-8}\">Carbon dioxide, total [Moles/volume] in Blood</span></p><p><b>subject</b>: <a href=\"Bundle-Instance-Bundle-fc1c3ac6-c97e-4fa5-96f7-a3a443b45be3.html#urn-uuid-538f125e-f171-4ec3-b018-8a23e0f06828\">Ludwig Wallin Male, DoB: 1950-03-02 ( Jurisdictional health number)</a></p><p><b>effective</b>: 2023-08-16</p><p><b>performer</b>: The Central European Lab</p><p><b>value</b>: 24.1 mmol/L<span style=\"background: LightGoldenRodYellow\"> (Details: UCUM  code20565-8 = '20565-8')</span></p><h3>ReferenceRanges</h3><table class=\"grid\"><tr><td style=\"display: none\">-</td><td><b>Low</b></td><td><b>High</b></td></tr><tr><td style=\"display: none\">*</td><td>22 mmol/L<span style=\"background: LightGoldenRodYellow\"> (Details: UCUM  codemmol/L = 'mmol/L')</span></td><td> </td></tr><tr><td style=\"display: none\">*</td><td> </td><td>29 mmol/L<span style=\"background: LightGoldenRodYellow\"> (Details: UCUM  codemmol/L = 'mmol/L')</span></td></tr></table></div>"},"status":"final","category":[{"coding":[{"system":"http://terminology.hl7.org/CodeSystem/observation-category","code":"laboratory"}]}],"code":{"coding":[{"system":"http://loinc.org","code":"20565-8","display":"Carbon dioxide, total [Moles/volume] in Blood"}],"text":"Carbon dioxide, total [Moles/volume] in Blood"},"subject":{"reference":"urn:uuid:538f125e-f171-4ec3-b018-8a23e0f06828"},"effectiveDateTime":"2023-08-16","performer":[{"display":"The Central European Lab"}],"valueQuantity":{"value":24.1,"unit":"mmol/L","system":"http://unitsofmeasure.org","code":"20565-8"},"referenceRange":[{"low":{"value":22,"system":"http://unitsofmeasure.org","code":"mmol/L"}},{"high":{"value":29,"system":"http://unitsofmeasure.org","code":"mmol/L"}}]}},{"fullUrl":"urn:uuid:ea4d423d-f6ea-494c-8ffc-b23c139eaf26","resource":{"resourceType":"Observation","id":"ea4d423d-f6ea-494c-8ffc-b23c139eaf26","meta":{"profile":["http://hl7.eu/fhir/laboratory/StructureDefinition/Observation-resultslab-eu-lab"]},"text":{"status":"generated","div":"<div xmlns=\"http://www.w3.org/1999/xhtml\"><a name=\"Observation_ea4d423d-f6ea-494c-8ffc-b23c139eaf26\"> </a><p class=\"res-header-id\"><b>Generated Narrative: Observation ea4d423d-f6ea-494c-8ffc-b23c139eaf26</b></p><a name=\"ea4d423d-f6ea-494c-8ffc-b23c139eaf26\"> </a><a name=\"hcea4d423d-f6ea-494c-8ffc-b23c139eaf26\"> </a><div style=\"display: inline-block; background-color: #d9e0e7; padding: 6px; margin: 4px; border: 1px solid #8da1b4; border-radius: 5px; line-height: 60%\"><p style=\"margin-bottom: 0px\"/><p style=\"margin-bottom: 0px\">Profile: <a href=\"http://hl7.eu/fhir/laboratory/0.1.1/StructureDefinition-Observation-resultslab-eu-lab.html\">Observation Results: laboratory</a></p></div><p><b>status</b>: Final</p><p><b>category</b>: <span title=\"Codes:{http://terminology.hl7.org/CodeSystem/observation-category laboratory}\">Laboratory</span></p><p><b>code</b>: <span title=\"Codes:{http://loinc.org 2885-2}\">Protein [Mass/volume] in Serum or Plasma</span></p><p><b>subject</b>: <a href=\"Bundle-Instance-Bundle-fc1c3ac6-c97e-4fa5-96f7-a3a443b45be3.html#urn-uuid-538f125e-f171-4ec3-b018-8a23e0f06828\">Ludwig Wallin Male, DoB: 1950-03-02 ( Jurisdictional health number)</a></p><p><b>effective</b>: 2023-08-16</p><p><b>performer</b>: The Central European Lab</p><p><b>value</b>: 6.8 g/dL<span style=\"background: LightGoldenRodYellow\"> (Details: UCUM  code2885-2 = '2885-2')</span></p><h3>ReferenceRanges</h3><table class=\"grid\"><tr><td style=\"display: none\">-</td><td><b>Low</b></td><td><b>High</b></td></tr><tr><td style=\"display: none\">*</td><td>6 g/dL<span style=\"background: LightGoldenRodYellow\"> (Details: UCUM  codeg/dL = 'g/dL')</span></td><td> </td></tr><tr><td style=\"display: none\">*</td><td> </td><td>8.3 g/dL<span style=\"background: LightGoldenRodYellow\"> (Details: UCUM  codeg/dL = 'g/dL')</span></td></tr></table></div>"},"status":"final","category":[{"coding":[{"system":"http://terminology.hl7.org/CodeSystem/observation-category","code":"laboratory"}]}],"code":{"coding":[{"system":"http://loinc.org","code":"2885-2","display":"Protein [Mass/volume] in Serum or Plasma"}],"text":"Protein [Mass/volume] in Serum or Plasma"},"subject":{"reference":"urn:uuid:538f125e-f171-4ec3-b018-8a23e0f06828"},"effectiveDateTime":"2023-08-16","performer":[{"display":"The Central European Lab"}],"valueQuantity":{"value":6.8,"unit":"g/dL","system":"http://unitsofmeasure.org","code":"2885-2"},"referenceRange":[{"low":{"value":6,"system":"http://unitsofmeasure.org","code":"g/dL"}},{"high":{"value":8.3,"system":"http://unitsofmeasure.org","code":"g/dL"}}]}},{"fullUrl":"urn:uuid:1681586e-24f3-4480-9ac7-a44ef213c70c","resource":{"resourceType":"Observation","id":"1681586e-24f3-4480-9ac7-a44ef213c70c","meta":{"profile":["http://hl7.eu/fhir/laboratory/StructureDefinition/Observation-resultslab-eu-lab"]},"text":{"status":"generated","div":"<div xmlns=\"http://www.w3.org/1999/xhtml\"><a name=\"Observation_1681586e-24f3-4480-9ac7-a44ef213c70c\"> </a><p class=\"res-header-id\"><b>Generated Narrative: Observation 1681586e-24f3-4480-9ac7-a44ef213c70c</b></p><a name=\"1681586e-24f3-4480-9ac7-a44ef213c70c\"> </a><a name=\"hc1681586e-24f3-4480-9ac7-a44ef213c70c\"> </a><div style=\"display: inline-block; background-color: #d9e0e7; padding: 6px; margin: 4px; border: 1px solid #8da1b4; border-radius: 5px; line-height: 60%\"><p style=\"margin-bottom: 0px\"/><p style=\"margin-bottom: 0px\">Profile: <a href=\"http://hl7.eu/fhir/laboratory/0.1.1/StructureDefinition-Observation-resultslab-eu-lab.html\">Observation Results: laboratory</a></p></div><p><b>status</b>: Final</p><p><b>category</b>: <span title=\"Codes:{http://terminology.hl7.org/CodeSystem/observation-category laboratory}\">Laboratory</span></p><p><b>code</b>: <span title=\"Codes:{http://loinc.org 1751-7}\">Albumin [Mass/volume] in Serum or Plasma</span></p><p><b>subject</b>: <a href=\"Bundle-Instance-Bundle-fc1c3ac6-c97e-4fa5-96f7-a3a443b45be3.html#urn-uuid-538f125e-f171-4ec3-b018-8a23e0f06828\">Ludwig Wallin Male, DoB: 1950-03-02 ( Jurisdictional health number)</a></p><p><b>effective</b>: 2023-08-16</p><p><b>performer</b>: The Central European Lab</p><p><b>value</b>: 4.4 g/dL<span style=\"background: LightGoldenRodYellow\"> (Details: UCUM  code1751-7 = '1751-7')</span></p><h3>ReferenceRanges</h3><table class=\"grid\"><tr><td style=\"display: none\">-</td><td><b>Low</b></td><td><b>High</b></td></tr><tr><td style=\"display: none\">*</td><td>3.2 g/dL<span style=\"background: LightGoldenRodYellow\"> (Details: UCUM  codeg/dL = 'g/dL')</span></td><td> </td></tr><tr><td style=\"display: none\">*</td><td> </td><td>5.5 g/dL<span style=\"background: LightGoldenRodYellow\"> (Details: UCUM  codeg/dL = 'g/dL')</span></td></tr></table></div>"},"status":"final","category":[{"coding":[{"system":"http://terminology.hl7.org/CodeSystem/observation-category","code":"laboratory"}]}],"code":{"coding":[{"system":"http://loinc.org","code":"1751-7","display":"Albumin [Mass/volume] in Serum or Plasma"}],"text":"Albumin [Mass/volume] in Serum or Plasma"},"subject":{"reference":"urn:uuid:538f125e-f171-4ec3-b018-8a23e0f06828"},"effectiveDateTime":"2023-08-16","performer":[{"display":"The Central European Lab"}],"valueQuantity":{"value":4.4,"unit":"g/dL","system":"http://unitsofmeasure.org","code":"1751-7"},"referenceRange":[{"low":{"value":3.2,"system":"http://unitsofmeasure.org","code":"g/dL"}},{"high":{"value":5.5,"system":"http://unitsofmeasure.org","code":"g/dL"}}]}},{"fullUrl":"urn:uuid:9a21e382-7d46-433c-a97c-863d9dceff24","resource":{"resourceType":"Observation","id":"9a21e382-7d46-433c-a97c-863d9dceff24","meta":{"profile":["http://hl7.eu/fhir/laboratory/StructureDefinition/Observation-resultslab-eu-lab"]},"text":{"status":"generated","div":"<div xmlns=\"http://www.w3.org/1999/xhtml\"><a name=\"Observation_9a21e382-7d46-433c-a97c-863d9dceff24\"> </a><p class=\"res-header-id\"><b>Generated Narrative: Observation 9a21e382-7d46-433c-a97c-863d9dceff24</b></p><a name=\"9a21e382-7d46-433c-a97c-863d9dceff24\"> </a><a name=\"hc9a21e382-7d46-433c-a97c-863d9dceff24\"> </a><div style=\"display: inline-block; background-color: #d9e0e7; padding: 6px; margin: 4px; border: 1px solid #8da1b4; border-radius: 5px; line-height: 60%\"><p style=\"margin-bottom: 0px\"/><p style=\"margin-bottom: 0px\">Profile: <a href=\"http://hl7.eu/fhir/laboratory/0.1.1/StructureDefinition-Observation-resultslab-eu-lab.html\">Observation Results: laboratory</a></p></div><p><b>status</b>: Final</p><p><b>category</b>: <span title=\"Codes:{http://terminology.hl7.org/CodeSystem/observation-category laboratory}\">Laboratory</span></p><p><b>code</b>: <span title=\"Codes:{http://loinc.org 10834-0}\">Globulin [Mass/volume] in Serum by calculation</span></p><p><b>subject</b>: <a href=\"Bundle-Instance-Bundle-fc1c3ac6-c97e-4fa5-96f7-a3a443b45be3.html#urn-uuid-538f125e-f171-4ec3-b018-8a23e0f06828\">Ludwig Wallin Male, DoB: 1950-03-02 ( Jurisdictional health number)</a></p><p><b>effective</b>: 2023-08-16</p><p><b>performer</b>: The Central European Lab</p><p><b>value</b>: 2 g/L<span style=\"background: LightGoldenRodYellow\"> (Details: UCUM  code10834-0 = '10834-0')</span></p><h3>ReferenceRanges</h3><table class=\"grid\"><tr><td style=\"display: none\">-</td><td><b>Low</b></td><td><b>High</b></td></tr><tr><td style=\"display: none\">*</td><td>1.5 g/L<span style=\"background: LightGoldenRodYellow\"> (Details: UCUM  codeg/L = 'g/L')</span></td><td> </td></tr><tr><td style=\"display: none\">*</td><td> </td><td>3.5 g/L<span style=\"background: LightGoldenRodYellow\"> (Details: UCUM  codeg/L = 'g/L')</span></td></tr></table></div>"},"status":"final","category":[{"coding":[{"system":"http://terminology.hl7.org/CodeSystem/observation-category","code":"laboratory"}]}],"code":{"coding":[{"system":"http://loinc.org","code":"10834-0","display":"Globulin [Mass/volume] in Serum by calculation"}],"text":"Globulin [Mass/volume] in Serum by calculation"},"subject":{"reference":"urn:uuid:538f125e-f171-4ec3-b018-8a23e0f06828"},"effectiveDateTime":"2023-08-16","performer":[{"display":"The Central European Lab"}],"valueQuantity":{"value":2,"unit":"g/L","system":"http://unitsofmeasure.org","code":"10834-0"},"referenceRange":[{"low":{"value":1.5,"system":"http://unitsofmeasure.org","code":"g/L"}},{"high":{"value":3.5,"system":"http://unitsofmeasure.org","code":"g/L"}}]}},{"fullUrl":"urn:uuid:80c86879-5230-4914-a279-6cc890a9d890","resource":{"resourceType":"Observation","id":"80c86879-5230-4914-a279-6cc890a9d890","meta":{"profile":["http://hl7.eu/fhir/laboratory/StructureDefinition/Observation-resultslab-eu-lab"]},"text":{"status":"generated","div":"<div xmlns=\"http://www.w3.org/1999/xhtml\"><a name=\"Observation_80c86879-5230-4914-a279-6cc890a9d890\"> </a><p class=\"res-header-id\"><b>Generated Narrative: Observation 80c86879-5230-4914-a279-6cc890a9d890</b></p><a name=\"80c86879-5230-4914-a279-6cc890a9d890\"> </a><a name=\"hc80c86879-5230-4914-a279-6cc890a9d890\"> </a><div style=\"display: inline-block; background-color: #d9e0e7; padding: 6px; margin: 4px; border: 1px solid #8da1b4; border-radius: 5px; line-height: 60%\"><p style=\"margin-bottom: 0px\"/><p style=\"margin-bottom: 0px\">Profile: <a href=\"http://hl7.eu/fhir/laboratory/0.1.1/StructureDefinition-Observation-resultslab-eu-lab.html\">Observation Results: laboratory</a></p></div><p><b>status</b>: Final</p><p><b>category</b>: <span title=\"Codes:{http://terminology.hl7.org/CodeSystem/observation-category laboratory}\">Laboratory</span></p><p><b>code</b>: <span title=\"Codes:{http://loinc.org 1975-2}\">Bilirubin.total [Mass/volume] in Serum or Plasma</span></p><p><b>subject</b>: <a href=\"Bundle-Instance-Bundle-fc1c3ac6-c97e-4fa5-96f7-a3a443b45be3.html#urn-uuid-538f125e-f171-4ec3-b018-8a23e0f06828\">Ludwig Wallin Male, DoB: 1950-03-02 ( Jurisdictional health number)</a></p><p><b>effective</b>: 2023-08-16</p><p><b>performer</b>: The Central European Lab</p><p><b>value</b>: 0.2 mg/dL<span style=\"background: LightGoldenRodYellow\"> (Details: UCUM  code1975-2 = '1975-2')</span></p><p><b>interpretation</b>: <span title=\"Codes:{http://terminology.hl7.org/CodeSystem/v3-ObservationInterpretation L}\">Low</span></p><h3>ReferenceRanges</h3><table class=\"grid\"><tr><td style=\"display: none\">-</td><td><b>Low</b></td><td><b>High</b></td></tr><tr><td style=\"display: none\">*</td><td>0.3 mg/dL<span style=\"background: LightGoldenRodYellow\"> (Details: UCUM  codemg/dL = 'mg/dL')</span></td><td> </td></tr><tr><td style=\"display: none\">*</td><td> </td><td>1.2 mg/dL<span style=\"background: LightGoldenRodYellow\"> (Details: UCUM  codemg/dL = 'mg/dL')</span></td></tr></table></div>"},"status":"final","category":[{"coding":[{"system":"http://terminology.hl7.org/CodeSystem/observation-category","code":"laboratory"}]}],"code":{"coding":[{"system":"http://loinc.org","code":"1975-2","display":"Bilirubin.total [Mass/volume] in Serum or Plasma"}],"text":"Bilirubin.total [Mass/volume] in Serum or Plasma"},"subject":{"reference":"urn:uuid:538f125e-f171-4ec3-b018-8a23e0f06828"},"effectiveDateTime":"2023-08-16","performer":[{"display":"The Central European Lab"}],"valueQuantity":{"value":0.2,"unit":"mg/dL","system":"http://unitsofmeasure.org","code":"1975-2"},"interpretation":[{"coding":[{"system":"http://terminology.hl7.org/CodeSystem/v3-ObservationInterpretation","code":"L","display":"Low"}]}],"referenceRange":[{"low":{"value":0.3,"system":"http://unitsofmeasure.org","code":"mg/dL"}},{"high":{"value":1.2,"system":"http://unitsofmeasure.org","code":"mg/dL"}}]}},{"fullUrl":"urn:uuid:7609b543-21d2-4b81-a9da-d85879ed9737","resource":{"resourceType":"Observation","id":"7609b543-21d2-4b81-a9da-d85879ed9737","meta":{"profile":["http://hl7.eu/fhir/laboratory/StructureDefinition/Observation-resultslab-eu-lab"]},"text":{"status":"generated","div":"<div xmlns=\"http://www.w3.org/1999/xhtml\"><a name=\"Observation_7609b543-21d2-4b81-a9da-d85879ed9737\"> </a><p class=\"res-header-id\"><b>Generated Narrative: Observation 7609b543-21d2-4b81-a9da-d85879ed9737</b></p><a name=\"7609b543-21d2-4b81-a9da-d85879ed9737\"> </a><a name=\"hc7609b543-21d2-4b81-a9da-d85879ed9737\"> </a><div style=\"display: inline-block; background-color: #d9e0e7; padding: 6px; margin: 4px; border: 1px solid #8da1b4; border-radius: 5px; line-height: 60%\"><p style=\"margin-bottom: 0px\"/><p style=\"margin-bottom: 0px\">Profile: <a href=\"http://hl7.eu/fhir/laboratory/0.1.1/StructureDefinition-Observation-resultslab-eu-lab.html\">Observation Results: laboratory</a></p></div><p><b>status</b>: Final</p><p><b>category</b>: <span title=\"Codes:{http://terminology.hl7.org/CodeSystem/observation-category laboratory}\">Laboratory</span></p><p><b>code</b>: <span title=\"Codes:{http://loinc.org 6768-6}\">Alkaline phosphatase [Enzymatic activity/volume] in Serum or Plasma</span></p><p><b>subject</b>: <a href=\"Bundle-Instance-Bundle-fc1c3ac6-c97e-4fa5-96f7-a3a443b45be3.html#urn-uuid-538f125e-f171-4ec3-b018-8a23e0f06828\">Ludwig Wallin Male, DoB: 1950-03-02 ( Jurisdictional health number)</a></p><p><b>effective</b>: 2023-08-16</p><p><b>performer</b>: The Central European Lab</p><p><b>value</b>: 96.6 U/L<span style=\"background: LightGoldenRodYellow\"> (Details: UCUM  code6768-6 = '6768-6')</span></p><h3>ReferenceRanges</h3><table class=\"grid\"><tr><td style=\"display: none\">-</td><td><b>Low</b></td><td><b>High</b></td></tr><tr><td style=\"display: none\">*</td><td>39 U/L<span style=\"background: LightGoldenRodYellow\"> (Details: UCUM  codeU/L = 'U/L')</span></td><td> </td></tr><tr><td style=\"display: none\">*</td><td> </td><td>130 U/L<span style=\"background: LightGoldenRodYellow\"> (Details: UCUM  codeU/L = 'U/L')</span></td></tr></table></div>"},"status":"final","category":[{"coding":[{"system":"http://terminology.hl7.org/CodeSystem/observation-category","code":"laboratory"}]}],"code":{"coding":[{"system":"http://loinc.org","code":"6768-6","display":"Alkaline phosphatase [Enzymatic activity/volume] in Serum or Plasma"}],"text":"Alkaline phosphatase [Enzymatic activity/volume] in Serum or Plasma"},"subject":{"reference":"urn:uuid:538f125e-f171-4ec3-b018-8a23e0f06828"},"effectiveDateTime":"2023-08-16","performer":[{"display":"The Central European Lab"}],"valueQuantity":{"value":96.6,"unit":"U/L","system":"http://unitsofmeasure.org","code":"6768-6"},"referenceRange":[{"low":{"value":39,"system":"http://unitsofmeasure.org","code":"U/L"}},{"high":{"value":130,"system":"http://unitsofmeasure.org","code":"U/L"}}]}},{"fullUrl":"urn:uuid:566124b7-205f-4e83-9d50-9c79f2dda171","resource":{"resourceType":"Observation","id":"566124b7-205f-4e83-9d50-9c79f2dda171","meta":{"profile":["http://hl7.eu/fhir/laboratory/StructureDefinition/Observation-resultslab-eu-lab"]},"text":{"status":"generated","div":"<div xmlns=\"http://www.w3.org/1999/xhtml\"><a name=\"Observation_566124b7-205f-4e83-9d50-9c79f2dda171\"> </a><p class=\"res-header-id\"><b>Generated Narrative: Observation 566124b7-205f-4e83-9d50-9c79f2dda171</b></p><a name=\"566124b7-205f-4e83-9d50-9c79f2dda171\"> </a><a name=\"hc566124b7-205f-4e83-9d50-9c79f2dda171\"> </a><div style=\"display: inline-block; background-color: #d9e0e7; padding: 6px; margin: 4px; border: 1px solid #8da1b4; border-radius: 5px; line-height: 60%\"><p style=\"margin-bottom: 0px\"/><p style=\"margin-bottom: 0px\">Profile: <a href=\"http://hl7.eu/fhir/laboratory/0.1.1/StructureDefinition-Observation-resultslab-eu-lab.html\">Observation Results: laboratory</a></p></div><p><b>status</b>: Final</p><p><b>category</b>: <span title=\"Codes:{http://terminology.hl7.org/CodeSystem/observation-category laboratory}\">Laboratory</span></p><p><b>code</b>: <span title=\"Codes:{http://loinc.org 1742-6}\">Alanine aminotransferase [Enzymatic activity/volume] in Serum or Plasma</span></p><p><b>subject</b>: <a href=\"Bundle-Instance-Bundle-fc1c3ac6-c97e-4fa5-96f7-a3a443b45be3.html#urn-uuid-538f125e-f171-4ec3-b018-8a23e0f06828\">Ludwig Wallin Male, DoB: 1950-03-02 ( Jurisdictional health number)</a></p><p><b>effective</b>: 2023-08-16</p><p><b>performer</b>: The Central European Lab</p><p><b>value</b>: 58.9 U/L<span style=\"background: LightGoldenRodYellow\"> (Details: UCUM  code1742-6 = '1742-6')</span></p><h3>ReferenceRanges</h3><table class=\"grid\"><tr><td style=\"display: none\">-</td><td><b>Low</b></td><td><b>High</b></td></tr><tr><td style=\"display: none\">*</td><td>34 U/L<span style=\"background: LightGoldenRodYellow\"> (Details: UCUM  codeU/L = 'U/L')</span></td><td> </td></tr><tr><td style=\"display: none\">*</td><td> </td><td>63 U/L<span style=\"background: LightGoldenRodYellow\"> (Details: UCUM  codeU/L = 'U/L')</span></td></tr></table></div>"},"status":"final","category":[{"coding":[{"system":"http://terminology.hl7.org/CodeSystem/observation-category","code":"laboratory"}]}],"code":{"coding":[{"system":"http://loinc.org","code":"1742-6","display":"Alanine aminotransferase [Enzymatic activity/volume] in Serum or Plasma"}],"text":"Alanine aminotransferase [Enzymatic activity/volume] in Serum or Plasma"},"subject":{"reference":"urn:uuid:538f125e-f171-4ec3-b018-8a23e0f06828"},"effectiveDateTime":"2023-08-16","performer":[{"display":"The Central European Lab"}],"valueQuantity":{"value":58.9,"unit":"U/L","system":"http://unitsofmeasure.org","code":"1742-6"},"referenceRange":[{"low":{"value":34,"system":"http://unitsofmeasure.org","code":"U/L"}},{"high":{"value":63,"system":"http://unitsofmeasure.org","code":"U/L"}}]}},{"fullUrl":"urn:uuid:7f4db609-0992-4b56-8ef1-69882aa95519","resource":{"resourceType":"Observation","id":"7f4db609-0992-4b56-8ef1-69882aa95519","meta":{"profile":["http://hl7.eu/fhir/laboratory/StructureDefinition/Observation-resultslab-eu-lab"]},"text":{"status":"generated","div":"<div xmlns=\"http://www.w3.org/1999/xhtml\"><a name=\"Observation_7f4db609-0992-4b56-8ef1-69882aa95519\"> </a><p class=\"res-header-id\"><b>Generated Narrative: Observation 7f4db609-0992-4b56-8ef1-69882aa95519</b></p><a name=\"7f4db609-0992-4b56-8ef1-69882aa95519\"> </a><a name=\"hc7f4db609-0992-4b56-8ef1-69882aa95519\"> </a><div style=\"display: inline-block; background-color: #d9e0e7; padding: 6px; margin: 4px; border: 1px solid #8da1b4; border-radius: 5px; line-height: 60%\"><p style=\"margin-bottom: 0px\"/><p style=\"margin-bottom: 0px\">Profile: <a href=\"http://hl7.eu/fhir/laboratory/0.1.1/StructureDefinition-Observation-resultslab-eu-lab.html\">Observation Results: laboratory</a></p></div><p><b>status</b>: Final</p><p><b>category</b>: <span title=\"Codes:{http://terminology.hl7.org/CodeSystem/observation-category laboratory}\">Laboratory</span></p><p><b>code</b>: <span title=\"Codes:{http://loinc.org 1920-8}\">Aspartate aminotransferase [Enzymatic activity/volume] in Serum or Plasma</span></p><p><b>subject</b>: <a href=\"Bundle-Instance-Bundle-fc1c3ac6-c97e-4fa5-96f7-a3a443b45be3.html#urn-uuid-538f125e-f171-4ec3-b018-8a23e0f06828\">Ludwig Wallin Male, DoB: 1950-03-02 ( Jurisdictional health number)</a></p><p><b>effective</b>: 2023-08-16</p><p><b>performer</b>: The Central European Lab</p><p><b>value</b>: 18.8 U/L<span style=\"background: LightGoldenRodYellow\"> (Details: UCUM  code1920-8 = '1920-8')</span></p><h3>ReferenceRanges</h3><table class=\"grid\"><tr><td style=\"display: none\">-</td><td><b>Low</b></td><td><b>High</b></td></tr><tr><td style=\"display: none\">*</td><td>10 U/L<span style=\"background: LightGoldenRodYellow\"> (Details: UCUM  codeU/L = 'U/L')</span></td><td> </td></tr><tr><td style=\"display: none\">*</td><td> </td><td>48 U/L<span style=\"background: LightGoldenRodYellow\"> (Details: UCUM  codeU/L = 'U/L')</span></td></tr></table></div>"},"status":"final","category":[{"coding":[{"system":"http://terminology.hl7.org/CodeSystem/observation-category","code":"laboratory"}]}],"code":{"coding":[{"system":"http://loinc.org","code":"1920-8","display":"Aspartate aminotransferase [Enzymatic activity/volume] in Serum or Plasma"}],"text":"Aspartate aminotransferase [Enzymatic activity/volume] in Serum or Plasma"},"subject":{"reference":"urn:uuid:538f125e-f171-4ec3-b018-8a23e0f06828"},"effectiveDateTime":"2023-08-16","performer":[{"display":"The Central European Lab"}],"valueQuantity":{"value":18.8,"unit":"U/L","system":"http://unitsofmeasure.org","code":"1920-8"},"referenceRange":[{"low":{"value":10,"system":"http://unitsofmeasure.org","code":"U/L"}},{"high":{"value":48,"system":"http://unitsofmeasure.org","code":"U/L"}}]}},{"fullUrl":"urn:uuid:0d60eb4f-b407-4ec1-8d96-2744cb8fc1ec","resource":{"resourceType":"Observation","id":"0d60eb4f-b407-4ec1-8d96-2744cb8fc1ec","meta":{"profile":["http://hl7.eu/fhir/laboratory/StructureDefinition/Observation-resultslab-eu-lab"]},"text":{"status":"generated","div":"<div xmlns=\"http://www.w3.org/1999/xhtml\"><a name=\"Observation_0d60eb4f-b407-4ec1-8d96-2744cb8fc1ec\"> </a><p class=\"res-header-id\"><b>Generated Narrative: Observation 0d60eb4f-b407-4ec1-8d96-2744cb8fc1ec</b></p><a name=\"0d60eb4f-b407-4ec1-8d96-2744cb8fc1ec\"> </a><a name=\"hc0d60eb4f-b407-4ec1-8d96-2744cb8fc1ec\"> </a><div style=\"display: inline-block; background-color: #d9e0e7; padding: 6px; margin: 4px; border: 1px solid #8da1b4; border-radius: 5px; line-height: 60%\"><p style=\"margin-bottom: 0px\"/><p style=\"margin-bottom: 0px\">Profile: <a href=\"http://hl7.eu/fhir/laboratory/0.1.1/StructureDefinition-Observation-resultslab-eu-lab.html\">Observation Results: laboratory</a></p></div><p><b>status</b>: Final</p><p><b>category</b>: <span title=\"Codes:{http://terminology.hl7.org/CodeSystem/observation-category laboratory}\">Laboratory</span></p><p><b>code</b>: <span title=\"Codes:{http://loinc.org 2093-3}\">Cholesterol [Mass/volume] in Serum or Plasma</span></p><p><b>subject</b>: <a href=\"Bundle-Instance-Bundle-fc1c3ac6-c97e-4fa5-96f7-a3a443b45be3.html#urn-uuid-538f125e-f171-4ec3-b018-8a23e0f06828\">Ludwig Wallin Male, DoB: 1950-03-02 ( Jurisdictional health number)</a></p><p><b>effective</b>: 2023-08-16</p><p><b>performer</b>: The Central European Lab</p><p><b>value</b>: 151.9 mg/dL<span style=\"background: LightGoldenRodYellow\"> (Details: UCUM  code2093-3 = '2093-3')</span></p><h3>ReferenceRanges</h3><table class=\"grid\"><tr><td style=\"display: none\">-</td><td><b>Low</b></td><td><b>High</b></td></tr><tr><td style=\"display: none\">*</td><td>125 mg/dL<span style=\"background: LightGoldenRodYellow\"> (Details: UCUM  codemg/dL = 'mg/dL')</span></td><td> </td></tr><tr><td style=\"display: none\">*</td><td> </td><td>200 mg/dL<span style=\"background: LightGoldenRodYellow\"> (Details: UCUM  codemg/dL = 'mg/dL')</span></td></tr></table></div>"},"status":"final","category":[{"coding":[{"system":"http://terminology.hl7.org/CodeSystem/observation-category","code":"laboratory"}]}],"code":{"coding":[{"system":"http://loinc.org","code":"2093-3","display":"Cholesterol [Mass/volume] in Serum or Plasma"}],"text":"Cholesterol [Mass/volume] in Serum or Plasma"},"subject":{"reference":"urn:uuid:538f125e-f171-4ec3-b018-8a23e0f06828"},"effectiveDateTime":"2023-08-16","performer":[{"display":"The Central European Lab"}],"valueQuantity":{"value":151.9,"unit":"mg/dL","system":"http://unitsofmeasure.org","code":"2093-3"},"referenceRange":[{"low":{"value":125,"system":"http://unitsofmeasure.org","code":"mg/dL"}},{"high":{"value":200,"system":"http://unitsofmeasure.org","code":"mg/dL"}}]}},{"fullUrl":"urn:uuid:8b46f7cc-99a9-4d7b-91c1-4c6167e2bdf9","resource":{"resourceType":"Observation","id":"8b46f7cc-99a9-4d7b-91c1-4c6167e2bdf9","meta":{"profile":["http://hl7.eu/fhir/laboratory/StructureDefinition/Observation-resultslab-eu-lab"]},"text":{"status":"generated","div":"<div xmlns=\"http://www.w3.org/1999/xhtml\"><a name=\"Observation_8b46f7cc-99a9-4d7b-91c1-4c6167e2bdf9\"> </a><p class=\"res-header-id\"><b>Generated Narrative: Observation 8b46f7cc-99a9-4d7b-91c1-4c6167e2bdf9</b></p><a name=\"8b46f7cc-99a9-4d7b-91c1-4c6167e2bdf9\"> </a><a name=\"hc8b46f7cc-99a9-4d7b-91c1-4c6167e2bdf9\"> </a><div style=\"display: inline-block; background-color: #d9e0e7; padding: 6px; margin: 4px; border: 1px solid #8da1b4; border-radius: 5px; line-height: 60%\"><p style=\"margin-bottom: 0px\"/><p style=\"margin-bottom: 0px\">Profile: <a href=\"http://hl7.eu/fhir/laboratory/0.1.1/StructureDefinition-Observation-resultslab-eu-lab.html\">Observation Results: laboratory</a></p></div><p><b>status</b>: Final</p><p><b>category</b>: <span title=\"Codes:{http://terminology.hl7.org/CodeSystem/observation-category laboratory}\">Laboratory</span></p><p><b>code</b>: <span title=\"Codes:{http://loinc.org 2571-8}\">Triglyceride [Mass/volume] in Serum or Plasma</span></p><p><b>subject</b>: <a href=\"Bundle-Instance-Bundle-fc1c3ac6-c97e-4fa5-96f7-a3a443b45be3.html#urn-uuid-538f125e-f171-4ec3-b018-8a23e0f06828\">Ludwig Wallin Male, DoB: 1950-03-02 ( Jurisdictional health number)</a></p><p><b>effective</b>: 2023-08-16</p><p><b>performer</b>: The Central European Lab</p><p><b>value</b>: 130 mg/dL<span style=\"background: LightGoldenRodYellow\"> (Details: UCUM  code2571-8 = '2571-8')</span></p><h3>ReferenceRanges</h3><table class=\"grid\"><tr><td style=\"display: none\">-</td><td><b>Low</b></td><td><b>High</b></td></tr><tr><td style=\"display: none\">*</td><td>0 mg/dL<span style=\"background: LightGoldenRodYellow\"> (Details: UCUM  codemg/dL = 'mg/dL')</span></td><td> </td></tr><tr><td style=\"display: none\">*</td><td> </td><td>150 mg/dL<span style=\"background: LightGoldenRodYellow\"> (Details: UCUM  codemg/dL = 'mg/dL')</span></td></tr></table></div>"},"status":"final","category":[{"coding":[{"system":"http://terminology.hl7.org/CodeSystem/observation-category","code":"laboratory"}]}],"code":{"coding":[{"system":"http://loinc.org","code":"2571-8","display":"Triglyceride [Mass/volume] in Serum or Plasma"}],"text":"Triglyceride [Mass/volume] in Serum or Plasma"},"subject":{"reference":"urn:uuid:538f125e-f171-4ec3-b018-8a23e0f06828"},"effectiveDateTime":"2023-08-16","performer":[{"display":"The Central European Lab"}],"valueQuantity":{"value":130,"unit":"mg/dL","system":"http://unitsofmeasure.org","code":"2571-8"},"referenceRange":[{"low":{"value":0,"system":"http://unitsofmeasure.org","code":"mg/dL"}},{"high":{"value":150,"system":"http://unitsofmeasure.org","code":"mg/dL"}}]}},{"fullUrl":"urn:uuid:b021b76c-a7ae-4977-81b8-4c7978657b13","resource":{"resourceType":"Observation","id":"b021b76c-a7ae-4977-81b8-4c7978657b13","meta":{"profile":["http://hl7.eu/fhir/laboratory/StructureDefinition/Observation-resultslab-eu-lab"]},"text":{"status":"generated","div":"<div xmlns=\"http://www.w3.org/1999/xhtml\"><a name=\"Observation_b021b76c-a7ae-4977-81b8-4c7978657b13\"> </a><p class=\"res-header-id\"><b>Generated Narrative: Observation b021b76c-a7ae-4977-81b8-4c7978657b13</b></p><a name=\"b021b76c-a7ae-4977-81b8-4c7978657b13\"> </a><a name=\"hcb021b76c-a7ae-4977-81b8-4c7978657b13\"> </a><div style=\"display: inline-block; background-color: #d9e0e7; padding: 6px; margin: 4px; border: 1px solid #8da1b4; border-radius: 5px; line-height: 60%\"><p style=\"margin-bottom: 0px\"/><p style=\"margin-bottom: 0px\">Profile: <a href=\"http://hl7.eu/fhir/laboratory/0.1.1/StructureDefinition-Observation-resultslab-eu-lab.html\">Observation Results: laboratory</a></p></div><p><b>status</b>: Final</p><p><b>category</b>: <span title=\"Codes:{http://terminology.hl7.org/CodeSystem/observation-category laboratory}\">Laboratory</span></p><p><b>code</b>: <span title=\"Codes:{http://loinc.org 18262-6}\">Cholesterol in LDL [Mass/volume] in Serum or Plasma by Direct assay</span></p><p><b>subject</b>: <a href=\"Bundle-Instance-Bundle-fc1c3ac6-c97e-4fa5-96f7-a3a443b45be3.html#urn-uuid-538f125e-f171-4ec3-b018-8a23e0f06828\">Ludwig Wallin Male, DoB: 1950-03-02 ( Jurisdictional health number)</a></p><p><b>effective</b>: 2023-08-16</p><p><b>performer</b>: The Central European Lab</p><p><b>value</b>: 126.4 mg/dL<span style=\"background: LightGoldenRodYellow\"> (Details: UCUM  code18262-6 = '18262-6')</span></p><h3>ReferenceRanges</h3><table class=\"grid\"><tr><td style=\"display: none\">-</td><td><b>Low</b></td><td><b>High</b></td></tr><tr><td style=\"display: none\">*</td><td>0 mg/dL<span style=\"background: LightGoldenRodYellow\"> (Details: UCUM  codemg/dL = 'mg/dL')</span></td><td> </td></tr><tr><td style=\"display: none\">*</td><td> </td><td>130 mg/dL<span style=\"background: LightGoldenRodYellow\"> (Details: UCUM  codemg/dL = 'mg/dL')</span></td></tr></table></div>"},"status":"final","category":[{"coding":[{"system":"http://terminology.hl7.org/CodeSystem/observation-category","code":"laboratory"}]}],"code":{"coding":[{"system":"http://loinc.org","code":"18262-6","display":"Cholesterol in LDL [Mass/volume] in Serum or Plasma by Direct assay"}],"text":"Cholesterol in LDL [Mass/volume] in Serum or Plasma by Direct assay"},"subject":{"reference":"urn:uuid:538f125e-f171-4ec3-b018-8a23e0f06828"},"effectiveDateTime":"2023-08-16","performer":[{"display":"The Central European Lab"}],"valueQuantity":{"value":126.4,"unit":"mg/dL","system":"http://unitsofmeasure.org","code":"18262-6"},"referenceRange":[{"low":{"value":0,"system":"http://unitsofmeasure.org","code":"mg/dL"}},{"high":{"value":130,"system":"http://unitsofmeasure.org","code":"mg/dL"}}]}},{"fullUrl":"urn:uuid:b4e2d930-9b21-4906-b770-a12dfdbc770c","resource":{"resourceType":"Observation","id":"b4e2d930-9b21-4906-b770-a12dfdbc770c","meta":{"profile":["http://hl7.eu/fhir/laboratory/StructureDefinition/Observation-resultslab-eu-lab"]},"text":{"status":"generated","div":"<div xmlns=\"http://www.w3.org/1999/xhtml\"><a name=\"Observation_b4e2d930-9b21-4906-b770-a12dfdbc770c\"> </a><p class=\"res-header-id\"><b>Generated Narrative: Observation b4e2d930-9b21-4906-b770-a12dfdbc770c</b></p><a name=\"b4e2d930-9b21-4906-b770-a12dfdbc770c\"> </a><a name=\"hcb4e2d930-9b21-4906-b770-a12dfdbc770c\"> </a><div style=\"display: inline-block; background-color: #d9e0e7; padding: 6px; margin: 4px; border: 1px solid #8da1b4; border-radius: 5px; line-height: 60%\"><p style=\"margin-bottom: 0px\"/><p style=\"margin-bottom: 0px\">Profile: <a href=\"http://hl7.eu/fhir/laboratory/0.1.1/StructureDefinition-Observation-resultslab-eu-lab.html\">Observation Results: laboratory</a></p></div><p><b>status</b>: Final</p><p><b>category</b>: <span title=\"Codes:{http://terminology.hl7.org/CodeSystem/observation-category laboratory}\">Laboratory</span></p><p><b>code</b>: <span title=\"Codes:{http://loinc.org 2085-9}\">Cholesterol in HDL [Mass/volume] in Serum or Plasma</span></p><p><b>subject</b>: <a href=\"Bundle-Instance-Bundle-fc1c3ac6-c97e-4fa5-96f7-a3a443b45be3.html#urn-uuid-538f125e-f171-4ec3-b018-8a23e0f06828\">Ludwig Wallin Male, DoB: 1950-03-02 ( Jurisdictional health number)</a></p><p><b>effective</b>: 2023-08-16</p><p><b>performer</b>: The Central European Lab</p><p><b>value</b>: 37.3 mg/dL<span style=\"background: LightGoldenRodYellow\"> (Details: UCUM  code2085-9 = '2085-9')</span></p><p><b>interpretation</b>: <span title=\"Codes:{http://terminology.hl7.org/CodeSystem/v3-ObservationInterpretation L}\">Low</span></p><h3>ReferenceRanges</h3><table class=\"grid\"><tr><td style=\"display: none\">-</td><td><b>Low</b></td><td><b>High</b></td></tr><tr><td style=\"display: none\">*</td><td>40 mg/dL<span style=\"background: LightGoldenRodYellow\"> (Details: UCUM  codemg/dL = 'mg/dL')</span></td><td> </td></tr><tr><td style=\"display: none\">*</td><td> </td><td>60 mg/dL<span style=\"background: LightGoldenRodYellow\"> (Details: UCUM  codemg/dL = 'mg/dL')</span></td></tr></table></div>"},"status":"final","category":[{"coding":[{"system":"http://terminology.hl7.org/CodeSystem/observation-category","code":"laboratory"}]}],"code":{"coding":[{"system":"http://loinc.org","code":"2085-9","display":"Cholesterol in HDL [Mass/volume] in Serum or Plasma"}],"text":"Cholesterol in HDL [Mass/volume] in Serum or Plasma"},"subject":{"reference":"urn:uuid:538f125e-f171-4ec3-b018-8a23e0f06828"},"effectiveDateTime":"2023-08-16","performer":[{"display":"The Central European Lab"}],"valueQuantity":{"value":37.3,"unit":"mg/dL","system":"http://unitsofmeasure.org","code":"2085-9"},"interpretation":[{"coding":[{"system":"http://terminology.hl7.org/CodeSystem/v3-ObservationInterpretation","code":"L","display":"Low"}]}],"referenceRange":[{"low":{"value":40,"system":"http://unitsofmeasure.org","code":"mg/dL"}},{"high":{"value":60,"system":"http://unitsofmeasure.org","code":"mg/dL"}}]}},{"fullUrl":"urn:uuid:8557ff24-1dc7-4ccd-b042-eb6bb93388f6","resource":{"resourceType":"DeviceUseStatement","id":"8557ff24-1dc7-4ccd-b042-eb6bb93388f6","meta":{"profile":["http://hl7.eu/fhir/eps/StructureDefinition/deviceUseStatement-eu-eps"]},"text":{"status":"generated","div":"<div xmlns=\"http://www.w3.org/1999/xhtml\"><a name=\"DeviceUseStatement_8557ff24-1dc7-4ccd-b042-eb6bb93388f6\"> </a><table class=\"hl7__ips\"><tr><td>Blood glucose meter (physical object)</td><td><span class=\"nb\">1997-03-16</span></td></tr></table></div>"},"status":"active","subject":{"reference":"urn:uuid:538f125e-f171-4ec3-b018-8a23e0f06828","display":"Ludwig Wallin"},"timingPeriod":{"start":"1997-03-16"},"device":{"reference":"urn:uuid:658d0f6f-fc57-4e91-a0a0-d5791c452c71","display":"Blood glucose meter (physical object)"}}},{"fullUrl":"urn:uuid:8557ff24-1dc7-4ccd-b042-eb6bb93388f6","resource":{"resourceType":"Device","id":"658d0f6f-fc57-4e91-a0a0-d5791c452c71","meta":{"profile":["http://hl7.eu/fhir/eps/StructureDefinition/device-eu-eps"]},"text":{"status":"generated","div":"<div xmlns=\"http://www.w3.org/1999/xhtml\"><a name=\"Device_658d0f6f-fc57-4e91-a0a0-d5791c452c71\"> </a><p class=\"res-header-id\"><b>Generated Narrative: Device 658d0f6f-fc57-4e91-a0a0-d5791c452c71</b></p><a name=\"658d0f6f-fc57-4e91-a0a0-d5791c452c71\"> </a><a name=\"hc658d0f6f-fc57-4e91-a0a0-d5791c452c71\"> </a><div style=\"display: inline-block; background-color: #d9e0e7; padding: 6px; margin: 4px; border: 1px solid #8da1b4; border-radius: 5px; line-height: 60%\"><p style=\"margin-bottom: 0px\"/><p style=\"margin-bottom: 0px\">Profile: <a href=\"StructureDefinition-device-eu-eps.html\">Device (EPS)</a></p></div><blockquote><p><b>udiCarrier</b></p><blockquote><p><b>id</b></p>(01)72877172343580(11)970223(17)220310(10)24549883476(21)886737750922479</blockquote></blockquote><p><b>status</b>: Active</p><p><b>type</b>: <span title=\"Codes:{http://snomed.info/sct 337414009}\">Blood glucose meter (physical object)</span></p><p><b>patient</b>: <a href=\"Bundle-Instance-Bundle-fc1c3ac6-c97e-4fa5-96f7-a3a443b45be3.html#urn-uuid-538f125e-f171-4ec3-b018-8a23e0f06828\">Ludwig Wallin</a></p></div>"},"udiCarrier":[{"id":"(01)72877172343580(11)970223(17)220310(10)24549883476(21)886737750922479"}],"status":"active","type":{"coding":[{"system":"http://snomed.info/sct","code":"337414009","display":"Blood glucose meter (physical object)"}]},"patient":{"reference":"urn:uuid:538f125e-f171-4ec3-b018-8a23e0f06828","display":"Ludwig Wallin"}}}]}